Heart_Rate,Acc_X,Acc_Y,Acc_Z,Gyro_X,Gyro_Y,Gyro_Z,Event_Label,Timestamp,Athlete_ID
166,-2.5981574032585555,2.205079456209523,-0.649083760662414,-48.45796609568771,15.407056604322634,164.5505342799188,Accel,2025-05-11 12:14:53.417747,A001
159,-2.862470561102178,2.173831419460024,-2.0541837850021167,5.137738359318405,34.97425361393303,-15.28365334557165,Jump_Takeoff,2025-05-11 12:14:53.517747,A001
120,-1.0454408764326149,2.7559746494032034,2.696017851149545,-175.9604796081135,-107.48155322794814,177.75721524397056,Stop,2025-05-11 12:14:53.617747,A001
119,2.9319393294840754,0.005219720292993557,-1.8350275355129422,-8.25597015578191,131.90944662893673,-172.1495544752176,Sprint_Mid,2025-05-11 12:14:53.717747,A001
121,2.5177302158460524,1.217080243061095,1.6115783669416501,-44.26691105366902,147.3037253750021,104.18686284218029,Start_Run,2025-05-11 12:14:53.817747,A001
92,0.8311502771499875,2.389554502048947,0.7793022220271961,86.69435685556152,121.12052265346063,-160.2937310724227,Landing,2025-05-11 12:14:53.917747,A001
89,-2.542717891318807,0.9163406373340397,0.15933334120711296,-113.6950338655345,137.61112440333505,-56.430505836452426,Stop,2025-05-11 12:14:54.017747,A001
171,2.721441224473784,-1.901187770569381,0.6362007151222704,-103.83043155462312,41.0633945018634,80.15389284990835,Sprint_Mid,2025-05-11 12:14:54.117747,A001
145,-2.9569533698972768,-1.9121215110920269,-1.0173158760098346,13.758636143626063,150.9397960257836,14.517672207139896,Sprint_Mid,2025-05-11 12:14:54.217747,A001
92,-1.855944319471251,0.31625742100018783,-0.5553860834031372,-39.58622004445016,111.51133827683896,-33.26459982041476,Landing,2025-05-11 12:14:54.317747,A001
124,-2.6516199666534526,2.137464250149722,2.7636048600751275,67.82736112405473,-48.827414123971124,157.8961136861019,Landing,2025-05-11 12:14:54.417747,A001
89,-0.8115658233612679,0.8862680092089907,-1.6115242669371082,21.049891802167792,103.24515631055516,132.13137555960623,Start_Run,2025-05-11 12:14:54.517747,A001
167,1.6687539677191303,2.363870351298649,1.3467625395084708,-12.537469203610215,-148.8566631816909,-159.49873846855866,Start_Run,2025-05-11 12:14:54.617747,A001
168,1.887926703564303,-1.259695726225349,2.9484902772228203,113.89326808080256,74.87298049791156,-157.91487913344744,Accel,2025-05-11 12:14:54.717747,A001
178,1.7403318344253051,-1.6258495242491864,-0.6465109120386661,-83.29264141710857,174.38977230518395,127.5107201300014,Landing,2025-05-11 12:14:54.817747,A001
150,0.9350936914432446,2.4674709345257986,-2.44053048467185,-85.13587776639423,144.83087043915555,-77.63619246487441,Accel,2025-05-11 12:14:54.917747,A001
143,2.519799137181855,2.9507884202745975,-1.2762011997794112,71.03323450682257,34.955285619736,-3.982997924528007,Accel,2025-05-11 12:14:55.017747,A001
166,1.4765607731653603,1.0243544404723393,0.8618027287177235,-92.26183241969056,-171.95582384413515,111.13754287875827,Accel,2025-05-11 12:14:55.117747,A001
149,-0.6339552414340619,1.6000349120169233,2.632775458517145,-26.161262649357184,98.69644529897977,-10.653256991948581,Jump_Takeoff,2025-05-11 12:14:55.217747,A001
96,2.3805081876783882,2.520005008497929,2.446352058776056,9.800910576142513,-101.01037011951462,107.29676982125534,Stop,2025-05-11 12:14:55.317747,A001
125,2.573005792522755,0.5480034753644905,-2.272780335769844,-113.74924871431365,163.56792431694402,85.74069085078258,Start_Run,2025-05-11 12:14:55.417747,A001
117,2.243443432711002,0.42331712969983304,2.2700136353255225,-109.48601337151054,-119.88940547788056,27.207765251431283,Jump_Takeoff,2025-05-11 12:14:55.517747,A001
87,-0.10634124308052773,-2.702323580028409,-0.0027274600577076313,-89.18661222447442,147.98359053859343,-36.54270206168874,Stop,2025-05-11 12:14:55.617747,A001
168,2.161723588887294,2.902151150503059,0.02291622197127552,-15.927226969875875,-152.73372769327486,-175.41398039860258,Sprint_Mid,2025-05-11 12:14:55.717747,A001
123,0.9407640277801907,0.6614938697388291,1.2501536162319669,57.73911849768382,-138.85391478874195,-75.21160270476733,Start_Run,2025-05-11 12:14:55.817747,A001
168,2.0578344122913794,1.4814219321331397,-1.7908379824905454,-57.128673423638375,167.9813972151171,33.89736883667453,Stop,2025-05-11 12:14:55.917747,A001
92,-2.7345343858931503,0.2149670366966534,1.237390225406747,-133.0122962078893,50.020423867941304,-8.2988041717675,Sprint_Mid,2025-05-11 12:14:56.017747,A001
100,1.3048416555984685,0.944840011149755,0.4226984092340671,179.0518253578934,172.96530150764784,13.72144517802775,Jump_Takeoff,2025-05-11 12:14:56.117747,A001
170,1.2158367840401043,2.999548960999059,-0.3882520110280083,-25.886564415020246,123.33181659612029,109.9811200535508,Start_Run,2025-05-11 12:14:56.217747,A001
178,-0.22062217554582642,-1.0563652790357052,0.652382895509092,135.44038552739073,138.15988495509117,-140.94059577464216,Landing,2025-05-11 12:14:56.317747,A001
139,2.2893375664080065,-2.323729903506546,-0.07846111008533807,-110.02713362419078,129.97983283833292,-88.75103590236118,Start_Run,2025-05-11 12:14:56.417747,A001
123,-2.4235441461698635,2.0066997440865784,1.5151119634221724,-14.216702433055644,-25.48411936498809,143.04202760475675,Stop,2025-05-11 12:14:56.517747,A001
97,-0.5055056848070048,0.2437013062475959,0.4638385091384869,36.90408151913593,50.44730954073199,-82.1632688374329,Jump_Takeoff,2025-05-11 12:14:56.617747,A001
104,-2.8438227010971904,-1.5777509464879198,1.6451429502859485,-93.58616924490607,82.47718209415541,-89.31302446772825,Stop,2025-05-11 12:14:56.717747,A001
84,2.822302936754925,1.8431194087033749,-0.8357807825638073,-6.513022270862905,-74.89189416568732,35.00782859595037,Sprint_Mid,2025-05-11 12:14:56.817747,A001
135,-0.7278560200019863,1.1693225148436808,1.9055672817092777,15.929897218429858,-168.40928804855872,42.81204824449978,Accel,2025-05-11 12:14:56.917747,A001
138,2.6140311784903547,-0.648636474384519,-0.5828055650993758,54.278420321379684,9.71503859751408,-45.19804408616346,Start_Run,2025-05-11 12:14:57.017747,A001
118,-1.169344858727507,0.5198580746738068,2.4888908951473665,-64.56069855977402,115.21001601555304,-176.58895274578924,Landing,2025-05-11 12:14:57.117747,A001
110,-2.025296832932011,2.9148235363415296,-0.21482626547021377,35.051066985798315,-122.26555256213047,-75.82388368610597,Landing,2025-05-11 12:14:57.217747,A001
135,2.422349522242845,-1.9365828133658793,1.0933756054595039,10.966680014693537,-150.0502763334574,-77.30508170104817,Stop,2025-05-11 12:14:57.317747,A001
106,0.6301858061112515,-2.2689653318730674,0.2917986641175965,-175.70221201649431,0.43587049488894536,71.10787989890699,Landing,2025-05-11 12:14:57.417747,A001
176,2.6322648985021626,-0.24746680806327426,2.6304976537443716,-141.3365674711923,161.96493399103252,-140.68904420687517,Start_Run,2025-05-11 12:14:57.517747,A001
122,0.2981055351194173,-2.531374175874523,2.658978314762636,-144.22219957769036,127.74029444544101,-179.88849651059786,Accel,2025-05-11 12:14:57.617747,A001
87,-2.7939396938806897,0.9193876128410707,-1.9702598886926113,155.23080487369032,66.86170238724554,74.53219969218114,Stop,2025-05-11 12:14:57.717747,A001
104,2.2845230283403097,0.22639542469920615,2.1425050668853833,-82.45890906038065,91.9662167153686,26.8440853176171,Stop,2025-05-11 12:14:57.817747,A001
125,-1.6965991524453918,1.5545457683761619,1.7057682287323583,152.1701942235722,-44.580560244812034,2.2506244190376776,Jump_Takeoff,2025-05-11 12:14:57.917747,A001
158,0.42586591498919546,-2.7660515717700296,1.5041353109323312,161.70619841019658,-54.47473596541201,-115.29111551822692,Stop,2025-05-11 12:14:58.017747,A001
173,2.506773756664079,1.0005363678442638,-0.17050442343460448,100.51384130599803,50.74967668396951,-158.18027143758715,Stop,2025-05-11 12:14:58.117747,A001
137,-1.67118850180878,-2.482403153621421,-0.4996853101617056,42.47029686503066,59.535975294542794,166.58528810301243,Start_Run,2025-05-11 12:14:58.217747,A001
146,2.914641991185312,0.9280552834333675,-0.27462565375679127,139.74992130533735,70.0127071032214,-54.461802651474514,Sprint_Mid,2025-05-11 12:14:58.317747,A001
121,0.310740381476974,-2.6159995034856784,-2.182633330089306,-114.81094716914123,47.51355347399024,41.6843276328448,Landing,2025-05-11 12:14:58.417747,A001
84,-0.2763596512153108,-2.4992873055732394,1.6286386145661647,-162.78611301238973,78.44918462018575,147.9150750688391,Start_Run,2025-05-11 12:14:58.517747,A001
166,0.8859575138417681,2.500939752140521,0.8564514024085508,-168.04926500203084,178.83453059510725,-144.37717139284743,Start_Run,2025-05-11 12:14:58.617747,A001
177,-1.4829827815512597,-0.6481133225582392,0.8756051088056296,-22.86455424922545,-89.80341878479383,-59.5993727238031,Stop,2025-05-11 12:14:58.717747,A001
105,-1.4633574503962443,2.27508843534945,0.29084052705237706,-77.34373605299349,156.63128027294425,68.70642316777773,Accel,2025-05-11 12:14:58.817747,A001
172,-1.7372266971479795,-0.8039196489590932,2.28208917511194,-132.55679929172032,-135.99569057237062,-2.169004210104248,Jump_Takeoff,2025-05-11 12:14:58.917747,A001
153,1.9250619814721315,-1.9312044180198011,1.1978080020081592,-170.14655083186727,70.62310822887633,165.75742941788053,Stop,2025-05-11 12:14:59.017747,A001
95,2.315296425430466,-1.5918988026884986,-2.319236990851386,-160.76999810357617,38.98714094708285,77.527156500074,Jump_Takeoff,2025-05-11 12:14:59.117747,A001
128,1.3593527233455713,1.2661363056134647,-0.7081760495003042,148.1145511817523,-80.16374089401201,-106.09907161690775,Start_Run,2025-05-11 12:14:59.217747,A001
104,2.2079636000166634,1.7555229602014109,0.4478524237310344,-149.88117238157406,-81.60755088466094,-72.82085469893391,Start_Run,2025-05-11 12:14:59.317747,A001
115,1.563887637468154,-1.9087158110904758,-1.9824839950757196,130.60801228634176,-0.6665625955559165,-91.46260286897433,Sprint_Mid,2025-05-11 12:14:59.417747,A001
116,2.351251001605326,0.7939358756654986,-0.9159297423598964,-6.034404494514774,90.81700594032225,-155.6995576059405,Landing,2025-05-11 12:14:59.517747,A001
92,-1.0614675162326863,-0.8061470237747317,-2.7271322921637786,32.1123264349871,79.89262917441602,98.46690848715713,Start_Run,2025-05-11 12:14:59.617747,A001
128,0.18303660053725812,0.33822897867246926,-0.0358350427987868,-32.442953758979655,-89.17502786592452,-35.75000462659841,Jump_Takeoff,2025-05-11 12:14:59.717747,A001
177,-1.251586402270531,2.105437932905998,-0.24919433912565747,-171.36145951197372,-1.9489495670475208,-149.5643992631557,Sprint_Mid,2025-05-11 12:14:59.817747,A001
121,-0.365940052802344,1.782377299213377,-2.4381700353152596,-114.36720350628978,170.58249539107732,2.1302423858500674,Sprint_Mid,2025-05-11 12:14:59.917747,A001
84,2.246666329236957,-0.9494543862086235,-1.045391282139789,-167.368459962132,54.504129132330036,12.565722308326173,Start_Run,2025-05-11 12:15:00.017747,A001
169,-1.052399356322097,-0.48564960802142787,1.094858274295908,-52.77659277324439,46.32117361138549,138.70177575933036,Stop,2025-05-11 12:15:00.117747,A001
98,0.017062263858813154,-1.1154572685985318,-1.917101951591204,90.03026698151837,-106.39752255628919,67.53783635776557,Landing,2025-05-11 12:15:00.217747,A001
170,-2.201975874074053,-2.01926484999655,-0.9424223436108994,22.343076021188637,33.35902204805811,-4.965456637213208,Stop,2025-05-11 12:15:00.317747,A001
84,-1.3387768982090602,-0.6139131891297938,1.0815937723714475,140.6922819529691,-165.21610545121982,-154.2460241194645,Accel,2025-05-11 12:15:00.417747,A001
107,2.8909032597890354,-0.7814676643193867,0.7547870377273855,-3.553609918825231,-128.5818194819642,-160.0042955858746,Start_Run,2025-05-11 12:15:00.517747,A001
127,-2.1348632165630814,-1.773577351406783,-1.5224056561152857,155.88535432695141,92.05708809639049,104.2917949135853,Jump_Takeoff,2025-05-11 12:15:00.617747,A001
174,2.0178592500940304,-0.5508415090954921,-1.4230618427256676,27.270030067311808,115.98584609402423,100.31477438696737,Jump_Takeoff,2025-05-11 12:15:00.717747,A001
103,-2.7734451624095957,-1.2560024304037365,-0.5178824175659766,18.095075229304058,-73.41716530504976,-76.41125548149667,Sprint_Mid,2025-05-11 12:15:00.817747,A001
104,2.1688488740561658,-1.0236760680804218,-0.7911984601131707,-165.91238838581063,-62.32363568448494,139.81092580845507,Sprint_Mid,2025-05-11 12:15:00.917747,A001
146,-2.190921824887657,-1.462123720434325,2.841043101441417,-43.157930805156894,23.75814177690907,73.54490485739268,Sprint_Mid,2025-05-11 12:15:01.017747,A001
107,-0.38370467626865423,-1.3572120515885269,0.5360302677032864,-128.84149446027035,-86.61902132849188,16.64926833703987,Start_Run,2025-05-11 12:15:01.117747,A001
117,2.6143550943504845,2.5262063192720294,-2.697497966218984,-117.68955378465535,-129.77983027339428,-78.75974360825376,Landing,2025-05-11 12:15:01.217747,A001
107,-2.0929024839764745,1.8618188240008244,1.55927222423274,-5.606830499616365,13.597480006059442,-158.56411031910136,Sprint_Mid,2025-05-11 12:15:01.317747,A001
169,1.2997895385924654,-0.44416180668051997,-1.8589311868560447,-100.26369899274873,-20.50559691983588,96.56016168113337,Accel,2025-05-11 12:15:01.417747,A001
176,-0.07460782032645152,-0.7129499942089197,1.3132678823648103,138.19540031491744,-178.12349334830702,156.1019469229322,Accel,2025-05-11 12:15:01.517747,A001
102,2.517151677114869,-1.2413287251992364,-1.0630056633811862,-156.26128029865671,41.417081484945925,125.727251147402,Start_Run,2025-05-11 12:15:01.617747,A001
96,2.2208580333104226,2.3545570652162358,0.8624427502634795,9.176122875354281,-60.69848842925417,172.80014961575932,Accel,2025-05-11 12:15:01.717747,A001
101,1.2944642340028034,0.1307329028240649,0.12359890081788638,-153.46446527799225,4.39001163345813,116.18785117421771,Jump_Takeoff,2025-05-11 12:15:01.817747,A001
121,-2.3599056151095894,0.786991264194425,0.4100835047894815,140.51249674133106,90.44785086655372,167.49427289951274,Sprint_Mid,2025-05-11 12:15:01.917747,A001
146,-2.9980190444431414,-0.16641923522870794,-2.824237769967776,170.83171931845482,-100.05653716509889,-9.840697428655915,Sprint_Mid,2025-05-11 12:15:02.017747,A001
126,1.773271658512134,-1.0529713162799428,2.141813011973799,38.99353176835723,62.50800774184589,-74.9974501403292,Stop,2025-05-11 12:15:02.117747,A001
125,-0.5260945315012506,-1.5858680164523928,1.9950730111607555,43.9504220903836,-166.52448811689476,115.17012697632782,Sprint_Mid,2025-05-11 12:15:02.217747,A001
145,1.1782550992233949,-2.337341238353093,-0.3531070497191888,111.24667521601106,1.9207155517716217,72.97165181420348,Sprint_Mid,2025-05-11 12:15:02.317747,A001
117,-2.019192371362337,-1.4656060393587036,-1.5157450828035586,165.62411394466932,-155.68985259868418,-25.64585722673857,Sprint_Mid,2025-05-11 12:15:02.417747,A001
179,1.5018746302783184,0.2881984333295575,-0.7087694865929972,111.55550941388498,30.40917539206069,-39.39764312626858,Jump_Takeoff,2025-05-11 12:15:02.517747,A001
113,-2.0998838292608273,0.37208792725814455,-2.0540364296799596,85.06980575312787,-166.5962622302625,-86.58431163436252,Sprint_Mid,2025-05-11 12:15:02.617747,A001
162,-2.0897603069766095,0.4017028538328611,1.5865971742211524,92.73017977886065,9.227489255821439,44.9062055663249,Accel,2025-05-11 12:15:02.717747,A001
80,-2.692921585990743,1.3500409466838725,-2.8600660106239495,-117.16002167149259,175.5308669538868,-50.0814315020495,Jump_Takeoff,2025-05-11 12:15:02.817747,A001
171,-0.8242982904872278,-2.2333022725569407,-2.27134430562975,-78.64738556151804,-160.7848220961861,67.8643878274427,Landing,2025-05-11 12:15:02.917747,A001
178,2.609008813051412,-1.4595354753926526,0.6674962370023603,-63.100717839668704,-101.90405513432898,-149.4286779516429,Start_Run,2025-05-11 12:15:03.017747,A001
127,2.253339926097638,2.255603552671949,-1.9435977837740543,-84.63341034078476,-152.49840595368994,100.2486023694666,Accel,2025-05-11 12:15:03.117747,A001
121,-0.8234690327929406,-2.249935079460938,-2.135877851689803,140.70874122277655,175.68289542526549,-75.9823737941819,Jump_Takeoff,2025-05-11 12:15:03.217747,A001
108,-0.10672630946274353,1.2571683814595875,0.6744174486178323,162.39894554974052,114.4000382297861,132.82997942304075,Accel,2025-05-11 12:15:03.317747,A001
90,-1.0363488400112997,1.2104160627634748,-0.36568176029162913,-76.40847339756316,-125.1825531579729,10.034714840242458,Stop,2025-05-11 12:15:03.417747,A001
123,0.4127140959250495,-2.300709819398676,0.4199239172324587,-119.37092155014923,58.93709956252883,-25.421761200407985,Sprint_Mid,2025-05-11 12:15:03.517747,A001
111,1.6695944687626723,1.3462923090998018,1.2044225960058137,21.77569421211672,-157.99911259379604,55.97626447188037,Start_Run,2025-05-11 12:15:03.617747,A001
115,1.952486625442864,2.3034108897606513,2.6223278013946523,-57.263083086889566,-73.05229519326983,-95.73750267405303,Start_Run,2025-05-11 12:15:03.717747,A001
139,1.8609224116601881,-2.91548152702278,2.436645599171243,-98.40697242009468,74.13571409978286,19.106318652197587,Jump_Takeoff,2025-05-11 12:15:03.817747,A001
133,1.307527940356315,-1.7569111686333618,-2.0458492154014407,54.688538423862695,-75.39147759432159,170.6220747567939,Landing,2025-05-11 12:15:03.917747,A001
137,-1.765774230140581,-0.13856744680634936,-0.41067426028135623,50.72099934139453,160.0952582971484,-139.5343039399384,Start_Run,2025-05-11 12:15:04.017747,A001
113,-1.8455337726771641,2.364645590387685,2.787481114809917,-7.667394519473959,-142.55629281786935,102.70608002016235,Accel,2025-05-11 12:15:04.117747,A001
88,-2.0523510863779117,0.21310691032145002,2.798000602833862,-123.63070457557302,-112.92853769911791,153.6538874142234,Stop,2025-05-11 12:15:04.217747,A001
91,0.5070362158998849,-0.3621460768509208,-1.1868538384316887,-155.81332925139552,-89.02517050471504,-108.77232611604082,Accel,2025-05-11 12:15:04.317747,A001
147,0.6100201305815629,0.6514303458360988,-0.6709139937259252,-28.35729587322143,120.3258346706304,-8.556187133821538,Sprint_Mid,2025-05-11 12:15:04.417747,A001
106,-0.489396239536231,1.808659612368685,0.232201116548314,-71.94244447944781,-83.81357381855322,-101.65895119842278,Stop,2025-05-11 12:15:04.517747,A001
92,2.9839236698386227,-1.3069281261046013,0.4522203889543013,-17.741525208426935,22.97429300706156,-123.31693541165521,Jump_Takeoff,2025-05-11 12:15:04.617747,A001
165,-0.2280099432363092,-2.789572323128805,1.75030728938117,138.1535995803776,66.97429154929023,-83.52179115710064,Landing,2025-05-11 12:15:04.717747,A001
177,2.4572314194803315,1.0260748490692198,0.8741119510454443,21.384761723366694,-163.52051780565878,155.4920768468113,Stop,2025-05-11 12:15:04.817747,A001
175,2.964371900298662,0.22413842863732203,1.2606653514372788,-159.76455916816002,47.425023656427925,95.2738601725286,Stop,2025-05-11 12:15:04.917747,A001
86,-1.387949724810602,-2.272638783958623,0.35299390532890484,-116.45955989349996,39.7302369558864,-85.13228070585649,Jump_Takeoff,2025-05-11 12:15:05.017747,A001
114,1.1357044905057885,-0.9713344755832072,2.8065259402387293,-143.45861101072722,-0.8111458957046409,-25.902794900853138,Stop,2025-05-11 12:15:05.117747,A001
153,0.873203945280892,-2.213665539469995,1.2999745088021815,173.01316456972341,109.64113720870682,129.60603104743632,Sprint_Mid,2025-05-11 12:15:05.217747,A001
149,0.44883134923368395,-1.9227644868024434,-0.4041130522313736,-56.69153734796549,163.10675599994255,-92.764716706539,Sprint_Mid,2025-05-11 12:15:05.317747,A001
105,-2.498506667997866,1.9357495660713608,-2.0882248447307092,-166.27261892706983,79.01620209338711,-79.10449193720581,Landing,2025-05-11 12:15:05.417747,A001
149,-1.2512623717597764,-2.0113631885286845,1.2377328842340436,50.024038872369374,136.42160493434233,166.29291281377823,Start_Run,2025-05-11 12:15:05.517747,A001
97,0.6261688497672284,-1.1833584458598454,-1.7978381759792983,15.325273226904415,-21.521169730439283,-39.55924316378406,Stop,2025-05-11 12:15:05.617747,A001
96,2.117598370783327,-1.095199538204668,0.5892113747631531,-39.637884883320055,-35.16254756688198,83.68721250388256,Stop,2025-05-11 12:15:05.717747,A001
161,-2.6901492166634604,2.9774525917021233,1.4193432178190672,-148.51794365900867,-172.71022327556685,78.94360805482086,Landing,2025-05-11 12:15:05.817747,A001
152,0.7999627941904981,1.1311464126471886,0.9505532651826911,37.18572517751923,-31.097934234217917,-45.61020803382826,Accel,2025-05-11 12:15:05.917747,A001
143,0.4813877223597358,1.0919846836844016,-0.9751518297799615,-42.650029922287956,84.47561922710298,153.9975954264549,Accel,2025-05-11 12:15:06.017747,A001
92,-1.37017921552742,1.45473160616912,-2.503609156073969,8.413973089549586,138.22888660102717,18.61534229366646,Accel,2025-05-11 12:15:06.117747,A001
173,-1.2500808876318061,1.7491957120013515,1.8486620796860604,-13.036515928072902,-114.9081713864513,52.83898598949571,Sprint_Mid,2025-05-11 12:15:06.217747,A001
128,2.875398499783466,1.7719521240491272,1.245220989761977,-131.20384189985467,114.14893947900953,84.95797226353312,Landing,2025-05-11 12:15:06.317747,A001
175,2.0688340022160023,-1.448287372137143,-1.0461313383006439,-94.95109162255872,147.01771705365502,0.9537604640215989,Landing,2025-05-11 12:15:06.417747,A001
177,-1.120052602195051,1.209118662670889,-0.6724167740707676,-179.9368142911476,-121.46179237654194,137.7425790785428,Landing,2025-05-11 12:15:06.517747,A001
102,-1.2388322749923022,-2.1039092980831597,-0.7885398369711742,-30.52884990891269,46.326360032857735,149.23035490927094,Accel,2025-05-11 12:15:06.617747,A001
141,-1.1219446848186403,0.033275627808984964,0.9008504078817845,-64.08608857771537,-165.20424647291347,-1.5608223731091186,Landing,2025-05-11 12:15:06.717747,A001
115,1.7801018764381586,-1.8479413408584329,-1.2745695066484297,173.8218772869978,-45.52252050913043,102.14004867620122,Jump_Takeoff,2025-05-11 12:15:06.817747,A001
122,-2.9610714973168415,1.2410661445745905,2.6248031268824663,-112.70327578499649,49.29968715367639,88.72551331983993,Sprint_Mid,2025-05-11 12:15:06.917747,A001
84,0.8811613441033299,2.821762396492514,-0.9319611539247132,-54.02572784229325,15.484503605164406,-41.93932279827345,Sprint_Mid,2025-05-11 12:15:07.017747,A001
165,-2.931012165616213,0.7268067040316923,-0.5632571542125371,-66.68766257012311,174.7808249892608,-12.18883119828655,Jump_Takeoff,2025-05-11 12:15:07.117747,A001
124,-2.903781599816125,0.3746936476285123,-2.2574360034959335,-151.18512332708139,91.97966473084341,-176.57776712948197,Landing,2025-05-11 12:15:07.217747,A001
160,-0.3961238928770112,-1.1339831210814528,2.496292057245861,-33.55117969162288,-82.92676980973981,-144.84201234837104,Sprint_Mid,2025-05-11 12:15:07.317747,A001
150,1.950548764787059,-2.800213298608968,-0.8481264095908516,89.9555236552655,160.69746509569939,-43.98541781583418,Landing,2025-05-11 12:15:07.417747,A001
154,-1.473842767161709,-0.40807444544905636,-2.659709170306647,31.713404945024593,92.26617258974176,-31.207477895600306,Jump_Takeoff,2025-05-11 12:15:07.517747,A001
141,-1.763578485476263,-0.7066157518949718,-2.8490752210613213,94.87430463289911,149.45084505179523,-94.38456698046292,Landing,2025-05-11 12:15:07.617747,A001
142,-2.560610974336597,0.5992078389302828,0.15899116396944812,5.843915256898498,134.3373434578175,-106.00615054962486,Landing,2025-05-11 12:15:07.717747,A001
91,-1.5286825296757443,-0.8772240871865691,0.8314364262337941,32.31195040415707,-130.76107627631995,124.181810483797,Start_Run,2025-05-11 12:15:07.817747,A001
85,-1.9644852357043674,-0.5216739122796117,-0.10514733349300487,-14.674539108927263,170.61867600004143,-163.6184743954934,Jump_Takeoff,2025-05-11 12:15:07.917747,A001
137,-0.6844714172808581,1.2055738178965916,-2.9407002733472316,-58.28777221305941,-71.0475436109488,132.51531394225668,Jump_Takeoff,2025-05-11 12:15:08.017747,A001
156,-1.804548728492291,-0.02258895678029349,2.40166216276615,-63.952166373776535,54.725261522087266,74.93460758661641,Start_Run,2025-05-11 12:15:08.117747,A001
90,-0.7604702459011472,0.03469980072029699,0.9026295825995199,164.25777629076742,95.34146295699082,-34.10755899404123,Jump_Takeoff,2025-05-11 12:15:08.217747,A001
94,1.0196950860184808,-1.4532140270152445,-1.529418494828183,77.2999926513935,7.702105054656641,65.97957975206032,Accel,2025-05-11 12:15:08.317747,A001
146,-2.616252619085163,0.22322091954649848,2.0753978757691502,-33.61137997570111,101.90428925724586,121.10256262223845,Landing,2025-05-11 12:15:08.417747,A001
124,-1.440501156853658,-1.1962766408661476,0.9669256183145576,70.4106627492759,73.47588638308201,65.77146171930124,Jump_Takeoff,2025-05-11 12:15:08.517747,A001
116,-0.6308779535779299,-1.4710942581337114,-2.058997800621822,69.32785658288603,-146.45203704996737,157.60522324324137,Start_Run,2025-05-11 12:15:08.617747,A001
139,-0.31499836485807275,-2.0158695322274203,-0.9233758266893792,115.19273090967727,-41.742942207291236,39.55353057228808,Start_Run,2025-05-11 12:15:08.717747,A001
143,1.7093483679831012,-2.551220112018364,2.9311480039555295,62.92671465656014,91.24189568715798,-91.51061173996825,Landing,2025-05-11 12:15:08.817747,A001
146,-2.101646615122858,1.6959775613766483,0.5286603198777478,-42.927015341453995,-60.1556953727232,128.07288158419084,Accel,2025-05-11 12:15:08.917747,A001
151,-0.11103792870363449,-1.9842827383632633,1.3766639299592986,-94.47629638194545,-56.70987975510161,24.27813045521026,Jump_Takeoff,2025-05-11 12:15:09.017747,A001
173,1.6110006441766673,-1.9877938263585375,-2.9017385611291298,123.58896307343667,28.17138432121871,140.99977279287305,Jump_Takeoff,2025-05-11 12:15:09.117747,A001
85,-0.7654578229499576,1.7394702013368306,-2.7640830739891604,-24.563686248519133,-42.387870723694334,53.12825669046924,Start_Run,2025-05-11 12:15:09.217747,A001
93,0.06225243977317296,2.9212610816503233,-1.1865036305208152,-168.88747228471402,-120.36125970849142,-37.75504148115576,Stop,2025-05-11 12:15:09.317747,A001
174,0.48387480215970236,2.7216202065047668,0.9029000999681251,62.32078883158354,-115.58573583809908,-2.6605156129823797,Landing,2025-05-11 12:15:09.417747,A001
95,-1.187706807063959,1.28373253945231,0.672282477946534,-26.214781532986166,-93.9507707506791,-47.15470823545965,Landing,2025-05-11 12:15:09.517747,A001
99,2.546966151181752,0.4341270721657464,-2.5821821041496364,19.03298166927766,27.26601569736502,-102.83764343652878,Accel,2025-05-11 12:15:09.617747,A001
126,-0.057537833179168274,2.23539911014778,0.28160911468926475,-6.9186895383191995,152.85635655181653,79.08825457632764,Accel,2025-05-11 12:15:09.717747,A001
92,-1.9337732328191157,1.7227371776366516,2.0151079270797254,16.268698472506742,19.60388203199014,47.49586662652001,Accel,2025-05-11 12:15:09.817747,A001
123,0.3190602368205391,2.6496062327242456,2.5268828255509987,138.2803034041504,-144.7218928693033,48.347067787318935,Stop,2025-05-11 12:15:09.917747,A001
114,-2.034267075259625,-0.5439422170263324,0.9694604434443508,48.13550763231993,-42.249184176394266,40.78310177992671,Start_Run,2025-05-11 12:15:10.017747,A001
165,-0.45509471965040094,-1.546915690963482,-1.035998245501021,174.72873951890608,-47.45951990780608,9.621005930564053,Jump_Takeoff,2025-05-11 12:15:10.117747,A001
121,-2.6722707810657704,-0.05373106936573624,-2.4515007053128937,-122.47719763911465,-42.10619384942575,-124.00556705982457,Jump_Takeoff,2025-05-11 12:15:10.217747,A001
116,2.5047639435584745,1.3540688009311097,-2.552320556055857,-34.95758002883795,-179.08070822349706,4.034427597227847,Accel,2025-05-11 12:15:10.317747,A001
177,-2.9984852730566276,1.5790463136584325,1.4810887277767089,3.500174003933182,145.05083036389937,147.04063404854458,Jump_Takeoff,2025-05-11 12:15:10.417747,A001
167,2.5196083906883695,-2.748371914184597,-0.6265073285034197,178.8533913855419,83.76190920024067,163.14755173409054,Jump_Takeoff,2025-05-11 12:15:10.517747,A001
121,1.4669303396955975,-2.3661429067785487,2.8906041071877944,83.14621493800178,126.18795945779084,-162.66571589764766,Jump_Takeoff,2025-05-11 12:15:10.617747,A001
165,1.975174674821492,-2.960445567966366,-1.6613102487679992,37.886672725985505,-145.18421928941666,-12.127602259443734,Landing,2025-05-11 12:15:10.717747,A001
106,-1.3746836698417515,-2.7399262804360456,-0.8134391319884933,-43.2325638633167,109.89741499461036,55.12704130427616,Landing,2025-05-11 12:15:10.817747,A001
120,0.13200870091232542,0.647520350789279,-0.7053377696750376,175.48438210562784,73.80765341886917,-75.23755402350072,Stop,2025-05-11 12:15:10.917747,A001
112,-0.5820014456783866,1.3353245796969375,1.103881995361137,166.82161621314566,-102.5531184871155,18.604642950950222,Landing,2025-05-11 12:15:11.017747,A001
96,-1.7324716151365094,-1.8727407663531241,-0.17257804319778058,139.9206957565748,-11.41002454369169,-31.014451954019876,Jump_Takeoff,2025-05-11 12:15:11.117747,A001
123,-2.714325729435071,0.43539272338613344,-0.9848741048350069,-114.50109537056389,-63.383196211907844,-162.25912747881182,Landing,2025-05-11 12:15:11.217747,A001
131,-1.4710930922114294,1.677889234487802,-1.4642780085004186,-125.88784154360533,-54.06885047261002,35.187872101517854,Jump_Takeoff,2025-05-11 12:15:11.317747,A001
120,-0.049236119624058716,1.3996697752059095,0.3999364656123743,-82.22438751105682,-127.60576872384733,38.20477999787198,Sprint_Mid,2025-05-11 12:15:11.417747,A001
89,-2.4241458198233223,-0.6262952052403898,0.08865853200272156,117.68156417721241,-152.60361989998955,-54.54167463143895,Stop,2025-05-11 12:15:11.517747,A001
170,0.8905435906294725,-1.2602500691772793,2.0720107321358547,-2.4143109974307606,-0.5933191282342136,171.57144211213836,Landing,2025-05-11 12:15:11.617747,A001
123,-1.705851792162686,-1.9461370047668016,-1.4797284308522913,140.95801778863347,158.76974975672692,25.066837537199007,Start_Run,2025-05-11 12:15:11.717747,A001
119,2.646118936183405,2.228144047393247,0.06865700350573789,23.48149722149904,-177.86394117141967,-102.41958389984443,Jump_Takeoff,2025-05-11 12:15:11.817747,A001
178,-2.818100373989067,1.5873397951861818,2.0125677676072904,42.991759416436764,89.54050870679856,8.174161141956688,Stop,2025-05-11 12:15:11.917747,A001
113,0.7657482055383187,2.4050218816939406,1.3101613134862902,-54.52320542278406,31.45809429671297,-68.12578966592831,Stop,2025-05-11 12:15:12.017747,A001
93,1.7112952507513395,0.07628088955797097,1.878395695534012,-0.9873945822207588,164.38835623101727,90.96182950132595,Stop,2025-05-11 12:15:12.117747,A001
150,2.582884917479202,0.7578065686431952,-2.49626578157459,138.59770082220933,-83.20505423705465,-92.24298249021813,Sprint_Mid,2025-05-11 12:15:12.217747,A001
154,2.034081618958812,1.3760732059786358,-0.7838395763301667,55.23576750094642,27.687926843416534,-134.62106077713352,Landing,2025-05-11 12:15:12.317747,A001
107,-1.9480699297284052,1.6957247344620558,0.9828606315016968,65.95499143713113,-6.640777034186414,60.12055176511129,Accel,2025-05-11 12:15:12.417747,A001
144,-1.258076376398603,-1.7626311754190673,-0.1476157688167019,5.127108452054074,-105.01871089497119,39.085321630914194,Stop,2025-05-11 12:15:12.517747,A001
133,-0.7569594842072886,0.512710181144632,0.01381143098667792,-109.60257659180323,82.80395595884801,108.52309001665708,Jump_Takeoff,2025-05-11 12:15:12.617747,A001
113,2.4969061608864074,2.733932551449201,2.56241469630711,-85.51869589301755,-96.31114552196517,-72.84077786544687,Sprint_Mid,2025-05-11 12:15:12.717747,A001
159,2.0755907139554957,-0.8605470043027648,-1.6042533239437518,45.53752746067374,151.63743603826276,-114.01438911860822,Stop,2025-05-11 12:15:12.817747,A001
133,-2.806893580707587,-2.7135972619274638,1.736297764131776,11.90837603686748,28.130642554363305,-161.06873032282425,Stop,2025-05-11 12:15:12.917747,A001
172,-1.0784896177789136,-0.23551119003376897,-1.623596239820865,-113.97259309775372,100.04045126118302,-107.76091799216073,Accel,2025-05-11 12:15:13.017747,A001
158,0.22574760448412778,0.10115115322390444,2.4305042265657217,104.37577958011684,147.26610949006601,-101.43106027878463,Stop,2025-05-11 12:15:13.117747,A001
154,-0.37334213364994007,-2.9812539021157702,2.2486281750200163,135.69156248770963,110.3100026467647,-90.6053461110567,Start_Run,2025-05-11 12:15:13.217747,A001
122,-0.15987492400319336,1.0914309987646291,0.8031174053012542,-26.19100935658642,143.77195041153368,6.9348292156239495,Sprint_Mid,2025-05-11 12:15:13.317747,A001
111,1.4916099573129582,0.9666794468663582,-0.36499685667404425,-52.592103114095835,91.5693315682052,-63.66916574646248,Landing,2025-05-11 12:15:13.417747,A001
156,-1.555890544659955,1.558169986799471,0.38604700723890417,128.15130974225167,142.0408810358578,53.544053680343296,Stop,2025-05-11 12:15:13.517747,A001
89,2.8232535369345584,2.8724874876929247,-2.218664304251168,-142.58328372997119,-31.421978250109163,166.92597801378076,Start_Run,2025-05-11 12:15:13.617747,A001
82,-0.38761421873040236,-2.5586338261337027,-0.009348957390033608,-2.04687070197852,31.839777950588342,-49.38478903032066,Stop,2025-05-11 12:15:13.717747,A001
88,0.2922075336374177,2.145279539621069,0.08502328024561123,66.05878215531067,-152.91071363594415,-18.357991471064537,Landing,2025-05-11 12:15:13.817747,A001
137,-0.9842181086780872,-2.11705379421766,-2.1394883265823506,-119.61201378974302,-163.5938922190247,144.77550791504814,Start_Run,2025-05-11 12:15:13.917747,A001
160,1.1997564762830235,1.968651055609845,1.7492460379992014,137.73802454238296,168.2116641089827,-21.934578692901766,Jump_Takeoff,2025-05-11 12:15:14.017747,A001
176,-1.9556933318097918,0.31086105424172494,2.670131505211433,6.433062905207208,119.48838268302234,92.53153960597189,Sprint_Mid,2025-05-11 12:15:14.117747,A001
91,0.5094690016309071,-2.9268746939295447,-1.007548546911984,-157.59225858283887,7.874270195362897,114.28115418250314,Accel,2025-05-11 12:15:14.217747,A001
133,-2.4013972642671595,1.7322571368817368,1.1091180199692454,162.04444396465158,-25.662176694769386,-151.8459635120059,Stop,2025-05-11 12:15:14.317747,A001
107,-2.8119752359396424,-2.359710168789747,0.2999849129241472,32.90666864360898,-169.56470516624708,26.415643680561033,Landing,2025-05-11 12:15:14.417747,A001
83,-1.7157618493802056,0.5741609748814094,-2.4384652075654643,-107.17892368582466,-68.43519815858335,86.69253294360834,Stop,2025-05-11 12:15:14.517747,A001
127,1.9477888079346792,1.4697911907653598,0.8005921876917608,64.3057217957707,110.30230560059391,58.49944501006965,Start_Run,2025-05-11 12:15:14.617747,A001
160,-0.7442333870318762,2.3823448102337528,-2.8972674852170286,71.57540924794154,163.71991887307757,74.24214118487052,Jump_Takeoff,2025-05-11 12:15:14.717747,A001
93,2.3545952299629853,-2.2920767500536288,1.2521083128605728,-54.64836640308225,-143.5192257122651,-40.80075955127862,Sprint_Mid,2025-05-11 12:15:14.817747,A001
116,-1.3886753627419233,-0.4115657779812878,-0.7274913093559574,48.00188946333219,112.73443235550383,-73.04808485259332,Stop,2025-05-11 12:15:14.917747,A001
164,1.0013716252220535,1.02192039498469,2.406787435717031,-174.2595528768081,127.09463836194357,7.560782261408491,Start_Run,2025-05-11 12:15:15.017747,A001
163,1.8619950454550134,-2.0625591233693843,-0.666249086232376,60.65475383044037,157.82617137934443,175.57771274808152,Landing,2025-05-11 12:15:15.117747,A001
122,1.4626855808691364,0.5459997545157229,0.2365091565208024,-26.16982443558362,170.1755904820991,21.66931952432398,Landing,2025-05-11 12:15:15.217747,A001
105,2.818856935058122,-0.9519923950126907,1.7793217386079219,126.55108990349771,44.34236749130139,-54.866922397285364,Sprint_Mid,2025-05-11 12:15:15.317747,A001
99,0.970975738068621,-2.587316053814046,-0.8276648989650512,156.737613863803,130.53212688289096,-77.20454236696796,Landing,2025-05-11 12:15:15.417747,A001
151,0.5160103641042686,-1.3000335683302415,2.868918732504236,-85.26590654316149,-10.933602968748545,135.85141645670456,Accel,2025-05-11 12:15:15.517747,A001
172,2.3856840500543113,-2.772301618560775,2.716595382919998,59.24859408325432,159.0081150391017,-108.12251280636782,Stop,2025-05-11 12:15:15.617747,A001
175,-2.705812521805913,-2.572799409153011,2.3232258855473518,95.69719690647969,-109.10117763183908,43.36847035713137,Landing,2025-05-11 12:15:15.717747,A001
154,-2.0228502501730334,1.4059404493111485,1.362074728198344,-26.97545749823732,152.9229274970449,-119.88796239755624,Jump_Takeoff,2025-05-11 12:15:15.817747,A001
82,-1.5842892648328395,-1.9888723435051312,-0.947887050132779,-120.81635182068862,-77.7013899462453,87.47471641341741,Landing,2025-05-11 12:15:15.917747,A001
177,-0.7497522330305886,-0.7876559683452413,-1.8328201505996808,-18.93187645668172,44.86880112774344,-129.90425957343945,Stop,2025-05-11 12:15:16.017747,A001
101,-2.7857343058311415,-0.8090198659318277,-0.12498391562734934,-112.88993212433351,-136.73104507960608,133.30936025994333,Accel,2025-05-11 12:15:16.117747,A001
175,0.6040675377312308,2.777019799456837,0.7615909855791454,102.45748512400854,135.92943811201224,77.2500496357656,Start_Run,2025-05-11 12:15:16.217747,A001
91,2.8693420114882473,-0.17266001457754054,-2.0235053533057163,-107.24964660812202,140.25650224478204,148.20588155870496,Accel,2025-05-11 12:15:16.317747,A001
109,1.18894586411907,0.5044314596026203,-0.30867086372577024,-99.56616597011909,-68.51872796754256,72.22476893842838,Jump_Takeoff,2025-05-11 12:15:16.417747,A001
171,-1.5782618244710593,1.4633288647117144,-0.15937279297035323,-73.87499375729664,108.7006592670391,70.81689612709019,Accel,2025-05-11 12:15:16.517747,A001
167,0.1626589521218076,-2.760434047168973,1.9551325251567127,-1.8995406829575359,-55.20825120940964,-65.21264257864469,Start_Run,2025-05-11 12:15:16.617747,A001
159,1.7465143291681793,-0.8704929578117566,2.7248284763028554,126.26304645097343,-73.93741211343479,-177.28520662224048,Accel,2025-05-11 12:15:16.717747,A001
105,-1.9592280113111227,-1.7448349942282768,0.7151026711071058,-91.42731856287723,135.82088328649206,-142.59911241084697,Stop,2025-05-11 12:15:16.817747,A001
100,-2.4697305242345764,2.0738587223179223,0.907377117993966,164.78806792221013,-58.93324514288726,-103.4358739165082,Landing,2025-05-11 12:15:16.917747,A001
134,0.22696967476049146,0.5461439291719303,-0.9147968240379072,-177.87710158675677,-167.38860494137793,58.97752611210464,Jump_Takeoff,2025-05-11 12:15:17.017747,A001
153,-0.7131401082421283,2.5968720898215407,1.2909884072306257,154.16832471770726,106.9109204024927,39.34707814490915,Jump_Takeoff,2025-05-11 12:15:17.117747,A001
83,0.07161557487311931,0.7768710837740782,1.0247831189374068,-49.53158919832296,89.1101951503694,133.2959275263662,Landing,2025-05-11 12:15:17.217747,A001
106,-1.2872536782770954,-1.2139681239221776,-0.18664208694729645,-172.155978085588,104.15628373001891,-65.84803658131479,Start_Run,2025-05-11 12:15:17.317747,A001
132,1.8157825296002024,0.9684121987126986,-1.0507507974042678,5.873962198021218,-19.861467264734756,-58.002520950477276,Start_Run,2025-05-11 12:15:17.417747,A001
122,1.7077397026199286,-2.8695551529799506,-1.5632711154869883,15.459266087181277,78.34225320693332,136.9909892350185,Jump_Takeoff,2025-05-11 12:15:17.517747,A001
148,0.13893637886467003,-1.708387355802841,1.312223697011838,-149.4789754572884,26.396536717088367,25.476766770924513,Landing,2025-05-11 12:15:17.617747,A001
133,-1.493398657760793,-1.2904211668493144,0.8832548069694601,-122.0819876128588,154.91048867527974,19.570207083218435,Stop,2025-05-11 12:15:17.717747,A001
131,0.07976149475698957,-2.492804308238566,-0.18363372881202578,155.86021271669188,79.11410868695953,-152.1317972788945,Jump_Takeoff,2025-05-11 12:15:17.817747,A001
123,1.0419745193606058,2.3682111661451017,-2.8024884794162777,112.48240741941385,22.252996921791123,16.592877106701337,Start_Run,2025-05-11 12:15:17.917747,A001
140,-1.574373018101844,-1.4749255545384201,-2.997461228639086,-156.1135780843269,-163.84017183224827,116.15626212783314,Sprint_Mid,2025-05-11 12:15:18.017747,A001
178,0.4214887496843973,-1.580067723121717,-2.1397459735905624,-45.370706660160266,86.14426634871734,149.8273733065995,Accel,2025-05-11 12:15:18.117747,A001
95,-2.6053933809925462,2.669452120499482,0.7146985041110403,83.2442921750062,63.57001335115558,60.389994427553034,Jump_Takeoff,2025-05-11 12:15:18.217747,A001
147,-1.4611168417913645,0.17504671909109693,2.7628785093658648,-147.731563864502,65.89796329064282,166.4150680926619,Start_Run,2025-05-11 12:15:18.317747,A001
96,0.19092816985165673,1.8072851270582175,-0.15146962938817454,52.23804357110106,-0.030820367930431303,47.2580123908173,Sprint_Mid,2025-05-11 12:15:18.417747,A001
96,-2.7680196829314,-2.1785915658156436,-1.2849711320164274,-88.79181751868154,41.46312587783288,-15.879807311673261,Accel,2025-05-11 12:15:18.517747,A001
130,-2.7908045620978466,-2.4564719872760055,-0.8815130555948043,-177.7741376530574,-2.1645844451494725,-50.158920848651036,Sprint_Mid,2025-05-11 12:15:18.617747,A001
122,0.9058114314448189,-0.6098680682045456,-2.4991842289082564,-75.34625187442244,15.741624538859327,-80.77126679416996,Sprint_Mid,2025-05-11 12:15:18.717747,A001
135,1.504982182118006,-1.6631589455982891,2.965797802824232,-119.5806523086687,103.95781760357761,73.81600985719243,Accel,2025-05-11 12:15:18.817747,A001
86,-1.0525419862237957,-0.5394619004330825,1.849276983099018,97.2574283110149,-99.7281090764347,41.82446937852279,Jump_Takeoff,2025-05-11 12:15:18.917747,A001
176,1.183646078255685,-2.695004014719908,-1.2420687764243614,-161.9222526285095,118.80600133492294,146.2667046865779,Stop,2025-05-11 12:15:19.017747,A001
117,0.5787366378436998,0.8178160309143339,2.095612502629087,61.16071242902643,83.8557439263081,-95.69927296920872,Jump_Takeoff,2025-05-11 12:15:19.117747,A001
109,0.034592654008832824,-0.26563559591852215,2.9829768856767416,40.03511501359529,103.12013634999238,-59.75471852724448,Start_Run,2025-05-11 12:15:19.217747,A001
133,-2.3889759504012034,1.3735980703082227,-1.9166098999486516,-154.92662282653288,-26.29639962126828,-165.75445374791263,Jump_Takeoff,2025-05-11 12:15:19.317747,A001
161,2.4911622685473986,2.389635986955321,2.8259043472612237,60.27408216251618,169.88908684524648,119.69208001148718,Accel,2025-05-11 12:15:19.417747,A001
150,0.2748389137134999,-0.399996746850352,2.77788148839163,-39.337539764511945,-35.780067432956315,59.67807158188407,Start_Run,2025-05-11 12:15:19.517747,A001
81,-0.4467942136728027,-1.1245516375328504,1.5703253465711278,119.69523886307223,171.10783391395677,51.12489048308683,Sprint_Mid,2025-05-11 12:15:19.617747,A001
99,-1.6712883574397432,-2.992459227637133,2.6025727188405074,-69.83451316276063,-109.21246471223917,-83.46717685232068,Sprint_Mid,2025-05-11 12:15:19.717747,A001
167,-2.5838899738884202,-2.6839610627672945,-1.2425354067715644,-73.5241927690455,-137.64735798687536,-34.27502604460767,Start_Run,2025-05-11 12:15:19.817747,A001
157,0.19825972733149877,-2.4123698077028646,1.7430502870389377,23.97661831457623,80.6284345584661,-29.334100805033813,Stop,2025-05-11 12:15:19.917747,A001
171,0.7845210178885851,2.7452553446824375,-0.735909260161125,42.55212343124103,136.14517648955143,-18.01663711889401,Jump_Takeoff,2025-05-11 12:15:20.017747,A001
80,1.5047380496910492,-2.1368055431589372,0.7323570556926482,-151.08368195176797,70.06402347857153,-42.537925237994386,Stop,2025-05-11 12:15:20.117747,A001
105,2.2345941452108704,-0.33726696905456466,-1.5668407222006488,-85.39560995204907,-93.40635841018191,-109.95978197186209,Sprint_Mid,2025-05-11 12:15:20.217747,A001
109,0.5782789962141943,2.829903627716959,-2.1812932903772486,24.589837654141263,107.3250172823146,9.194663205257825,Accel,2025-05-11 12:15:20.317747,A001
175,1.864032340574468,2.121926876695867,1.2176957470720193,-146.53891207666572,-174.21116889387386,-119.31851805976015,Landing,2025-05-11 12:15:20.417747,A001
165,-0.5745854649631239,1.6567798356863914,2.7205619004048796,-151.57909265881608,12.793204006990152,-67.49198232324969,Jump_Takeoff,2025-05-11 12:15:20.517747,A001
109,-0.5983379555131192,1.4408592405657172,-1.4729003007811803,71.50068045313927,-3.055744654256358,138.75870546388546,Landing,2025-05-11 12:15:20.617747,A001
165,-2.4200113970059736,-0.9890811442660761,0.04128266419321802,83.78647716088528,-108.69223677889256,-101.48683377367229,Jump_Takeoff,2025-05-11 12:15:20.717747,A001
169,1.8592895142342645,1.5069222218734701,1.5623242930830212,-39.93814453728507,90.58339830413291,-40.76272490293525,Jump_Takeoff,2025-05-11 12:15:20.817747,A001
102,1.8216716577361094,0.828836930946145,-2.611141046076825,-56.81772623273754,176.1538260633156,-109.25629602914924,Accel,2025-05-11 12:15:20.917747,A001
82,2.0576438392635694,0.5193513644841241,-0.7663784512399365,-151.11771742162594,-49.800635087005816,-114.45569583325576,Start_Run,2025-05-11 12:15:21.017747,A001
86,-2.273707342965968,-1.6703448705650947,-0.7220759047879608,-50.25657415697475,-38.970688462123775,105.66765527051683,Accel,2025-05-11 12:15:21.117747,A001
163,0.011389082415988128,0.7434421971473792,-1.6069286988983693,78.73033937311402,16.960075105781158,-19.158781308703908,Sprint_Mid,2025-05-11 12:15:21.217747,A001
89,-1.562953535758171,-0.20036240444290776,-1.7997046011217506,20.94920470791277,-84.5957568658797,-166.75598998122092,Accel,2025-05-11 12:15:21.317747,A001
121,0.609372412931402,1.519126223089045,-0.40008305860261917,17.055991259908666,-157.654750784936,-147.65114951998314,Landing,2025-05-11 12:15:21.417747,A001
121,-1.2277729037550842,-2.689782000955979,1.605570709519058,-53.09023439576819,140.30090675998895,-37.779561502829836,Start_Run,2025-05-11 12:15:21.517747,A001
86,2.6373882194080753,0.9069147038128786,-0.5190665196149711,24.263736762939402,15.64026787508135,30.535213195210616,Start_Run,2025-05-11 12:15:21.617747,A001
86,2.386644409530306,-0.591293954325768,-0.6892495744846667,-178.72236292868232,40.833454147643494,-169.28211333343248,Jump_Takeoff,2025-05-11 12:15:21.717747,A001
87,2.195795721004923,2.6684207417035584,0.9868617774383495,-6.4746385587704935,-53.17881094591232,-3.266966164920916,Sprint_Mid,2025-05-11 12:15:21.817747,A001
102,-1.9800222195119928,2.4308032490651144,-1.7961379022568258,176.25134669064113,-177.3682240842213,-85.14598422855491,Start_Run,2025-05-11 12:15:21.917747,A001
168,-2.9160395389772242,1.394207400883893,1.160554812597578,105.24634716777496,-87.5885232727565,-20.03933985013083,Sprint_Mid,2025-05-11 12:15:22.017747,A001
152,-0.36138897667113845,1.1839546219074943,0.8038404506426531,-138.72679091201647,101.17552358770848,79.44348927330657,Start_Run,2025-05-11 12:15:22.117747,A001
116,-0.29832310281275554,-0.23387703591601028,-0.18370769650442842,137.32990697603418,114.70587880918163,46.64518602139324,Start_Run,2025-05-11 12:15:22.217747,A001
90,0.8293934781612142,0.3928327893015018,-1.6442837348804769,150.50756241671087,-111.17410592496614,106.18233581688378,Landing,2025-05-11 12:15:22.317747,A001
139,-2.7306858870196615,-2.0292229506585553,-2.81913723121355,83.75120727930755,-90.49891715217372,-47.25344630447671,Accel,2025-05-11 12:15:22.417747,A001
138,-2.9572198786739636,1.090190820497007,-1.3879932922330345,113.465963625391,-50.69784579865191,-7.215662353207421,Sprint_Mid,2025-05-11 12:15:22.517747,A001
101,-0.9869139235240763,-2.1579481636917253,-1.3937382211483513,-160.93591183752318,34.20303181081158,-127.70059789663038,Accel,2025-05-11 12:15:22.617747,A001
160,-1.6909501423321673,1.7878594760291158,-1.8607080826447937,79.6919629324675,-60.09311533492897,29.923198160043,Landing,2025-05-11 12:15:22.717747,A001
81,2.2717295808454345,1.7020415581176227,-0.5519149980103872,173.4508881784177,-43.34628822392165,49.90514367687325,Start_Run,2025-05-11 12:15:22.817747,A001
167,-1.6802908935942253,0.570473613023128,2.859963823260853,-18.2934833788901,67.38252933942087,14.192881575975065,Sprint_Mid,2025-05-11 12:15:22.917747,A001
121,1.0306363581733793,-1.2485423172579382,-0.061859747034710644,-140.24362632886206,-10.228656074705071,-92.22341306385425,Jump_Takeoff,2025-05-11 12:15:23.017747,A001
84,-0.726705722692591,-0.6731007443344135,0.33279003545203656,-129.18895146873228,-40.58674550840374,-19.088795015013943,Accel,2025-05-11 12:15:23.117747,A001
140,-0.8912713842856936,0.8674733752852135,-2.1755070010411908,-156.42670254112113,133.75512504044292,83.06456486604714,Stop,2025-05-11 12:15:23.217747,A001
125,-2.864630095456034,-2.114139044177047,-2.841967789508688,176.37233127146226,-79.6064943631597,152.47539249704135,Start_Run,2025-05-11 12:15:23.317747,A001
121,-1.3268968194794115,2.17544612436874,2.9164312220331263,-88.43432356885033,110.24861385093573,90.05987389552467,Jump_Takeoff,2025-05-11 12:14:53.417747,A002
111,-0.36691314173181633,2.6044610956289063,0.20843829248106616,69.74138212647918,142.73469815129874,-127.12612470004535,Sprint_Mid,2025-05-11 12:14:53.517747,A002
127,-2.3560880371559096,-2.1621696046205265,0.07550380160539882,-64.37546677171295,-27.657777770368227,173.69633944586224,Landing,2025-05-11 12:14:53.617747,A002
140,0.17336379919106015,-0.495042885890403,1.7762205594105858,15.355460270563725,157.2141756176012,-109.38931241004052,Accel,2025-05-11 12:14:53.717747,A002
132,-2.610559822711981,-0.6710313122380986,-2.1255529447561337,-97.2037392150797,42.51262433939655,-155.7274081666746,Stop,2025-05-11 12:14:53.817747,A002
163,1.2690349642691725,-0.7341517021421318,2.767787844797656,-62.7665448577183,174.06853982926663,-106.04762762570542,Jump_Takeoff,2025-05-11 12:14:53.917747,A002
135,-1.0461210468752806,-0.1498994580394868,-0.669218144334021,-56.68587737654123,-172.13350420519964,-50.39246237237873,Jump_Takeoff,2025-05-11 12:14:54.017747,A002
132,0.5410004268762467,-1.005726360734276,1.4823244925359633,41.86568022670676,134.57654544720242,0.34625748937114054,Landing,2025-05-11 12:14:54.117747,A002
129,2.2069949804069804,-1.1907359202668077,-0.27554313412594933,9.411393488092699,126.18237757615032,155.378698253158,Stop,2025-05-11 12:14:54.217747,A002
131,-2.4857394393702963,-2.1641647999634523,-2.9721550470119587,-176.56405467034492,-43.096359778973294,111.29896978119945,Landing,2025-05-11 12:14:54.317747,A002
176,0.6282587633243519,-0.12332262757796508,2.606254077842525,-93.40241464274868,-81.3511101461451,151.46565684950025,Sprint_Mid,2025-05-11 12:14:54.417747,A002
136,0.6573649314288592,1.0904157123936642,0.03325034057843679,69.9234763763294,-117.80832743569188,126.94760379775437,Sprint_Mid,2025-05-11 12:14:54.517747,A002
125,2.41368942264374,0.7811186347271919,-1.4260967130119617,-79.45185988315575,39.670139393506844,-33.503409131161646,Sprint_Mid,2025-05-11 12:14:54.617747,A002
92,-2.636100056799486,-2.1675648773415315,-0.6398974406180242,71.88711117651664,-162.71086046403127,-59.55919458081004,Landing,2025-05-11 12:14:54.717747,A002
150,-1.8889443669296453,0.32905314222964765,1.3333995371231637,145.43142187556776,138.2106227163402,3.1465041948511043,Stop,2025-05-11 12:14:54.817747,A002
83,1.2739601162480287,-1.5891701518813781,0.8034193622886736,51.578637771706525,-33.544320446632355,-2.514433787662483,Jump_Takeoff,2025-05-11 12:14:54.917747,A002
158,2.1005041279838172,2.690182386128882,-0.8325018325583722,6.712664191800911,100.47429209267852,22.34812952363353,Landing,2025-05-11 12:14:55.017747,A002
122,-2.466891089571415,-0.05649672237294734,0.7224862482812018,-154.76052986177694,-105.49686529849346,-59.26525744337103,Start_Run,2025-05-11 12:14:55.117747,A002
150,1.0566278595249505,0.1741280433571446,-0.7073491781680383,-17.75654843700599,-175.3283985659139,97.38910055074683,Jump_Takeoff,2025-05-11 12:14:55.217747,A002
100,-2.0762340353734428,1.1443373653738131,2.761130580059552,50.742799145343184,42.14755080224148,19.25637498015621,Landing,2025-05-11 12:14:55.317747,A002
103,0.2602193234639092,-2.0960506080664905,2.2717855570380436,-165.35807338675863,110.64138145913091,64.95178551323332,Accel,2025-05-11 12:14:55.417747,A002
179,2.5631026132760857,2.939609708777997,0.4876963917663577,-140.80261822878032,-14.713233200842893,103.536412726192,Jump_Takeoff,2025-05-11 12:14:55.517747,A002
157,-2.4144147609075564,1.3674142986755573,2.813644263045598,25.0498648019134,-95.33920695779283,123.55430094914237,Stop,2025-05-11 12:14:55.617747,A002
95,1.3934415012353352,-1.073881136694602,-1.408055579611997,54.83491255927834,21.243921334863046,-49.5321689472114,Landing,2025-05-11 12:14:55.717747,A002
165,2.2319542439828,-1.4960277917311975,2.1490703178637744,-0.8502437384309758,34.17488546429709,122.61622410149226,Jump_Takeoff,2025-05-11 12:14:55.817747,A002
171,-1.9041661457892094,-2.3025254838603724,2.0303945309201525,99.57545359080768,-62.18734546812088,56.951066956812014,Stop,2025-05-11 12:14:55.917747,A002
160,-2.1209799569674885,1.710588053706152,-1.529243973272955,85.61438193130056,-16.1994173299299,175.05484723899804,Stop,2025-05-11 12:14:56.017747,A002
90,-0.3336898401716639,-2.728012187712036,-0.8303019523090054,92.33418567596993,-47.19082559269677,77.46190293944903,Sprint_Mid,2025-05-11 12:14:56.117747,A002
146,1.9827575425761683,-1.579189379637296,-1.6736174694888923,39.19902592293735,114.47253951317782,-90.1366783763127,Sprint_Mid,2025-05-11 12:14:56.217747,A002
149,2.694582533570558,2.9383387953282893,-0.09501451564798913,-11.490616409364577,52.186957468270634,20.028512593789117,Stop,2025-05-11 12:14:56.317747,A002
163,-0.33059970107677206,-1.9859919214409814,-0.23394090696227288,38.4364051093996,-60.85730917560588,3.692815632032307,Stop,2025-05-11 12:14:56.417747,A002
95,-0.25332389240616093,-2.902164589280971,-1.9556151755561495,-4.135089601528904,116.15524525813288,-79.65827757823531,Start_Run,2025-05-11 12:14:56.517747,A002
170,-2.1061034495400452,-1.4248345745442519,-0.8319634813830938,-128.27648291228272,-163.45357307600028,135.77752872648398,Jump_Takeoff,2025-05-11 12:14:56.617747,A002
106,-0.9145205738549986,2.969098842370755,-1.1856088810261338,-94.05415966946403,24.44059738994588,120.64541880355347,Accel,2025-05-11 12:14:56.717747,A002
112,0.43665909958196103,2.9318150309357005,-2.559333179044661,-35.8003447265404,-164.49085079786707,-108.27848064384904,Sprint_Mid,2025-05-11 12:14:56.817747,A002
178,-0.31145332322448116,2.839842477002259,2.9423050661893146,54.06412534596433,-134.23705493146252,2.2212308358728876,Accel,2025-05-11 12:14:56.917747,A002
136,-2.0897781320908777,1.5722193078469555,1.0841915764834607,15.456019461466497,111.81144398795027,53.3793687937343,Jump_Takeoff,2025-05-11 12:14:57.017747,A002
131,0.42143665467480407,0.4101670946146476,1.094702521142401,-149.25683083137082,45.541190615794704,-78.92929773131718,Sprint_Mid,2025-05-11 12:14:57.117747,A002
137,-0.15838919103189308,-1.4830233288267582,-0.8935425675405706,138.63028297444077,163.75789395631813,162.03875136701015,Landing,2025-05-11 12:14:57.217747,A002
119,1.6440198774585575,-1.3082500371441272,-1.2726664237209453,146.16700407953573,-50.460468446678874,-157.31445935058824,Jump_Takeoff,2025-05-11 12:14:57.317747,A002
105,2.9923395272262834,2.7183124332098467,0.9306538242882385,-12.753155865508745,-125.21854219927334,5.613769891566847,Jump_Takeoff,2025-05-11 12:14:57.417747,A002
115,-0.7135759413934664,1.6473614994875234,-0.49595116040204523,170.0515745207922,84.86656196164171,-174.42002999148443,Start_Run,2025-05-11 12:14:57.517747,A002
80,-1.837174545192505,-1.8204804745082386,2.9372987479489616,-92.41881376960367,121.74913252209024,-10.683422803447371,Accel,2025-05-11 12:14:57.617747,A002
147,-1.2302255030174856,1.6429547813539847,2.283965270649329,-85.9941138387311,-145.76519903431898,-130.70896096118045,Start_Run,2025-05-11 12:14:57.717747,A002
139,-1.8798342152315275,2.0314659982285495,1.45069998533822,155.10133136156776,-120.41289518223253,-128.06952691802707,Landing,2025-05-11 12:14:57.817747,A002
154,0.6866019290105716,-0.11895934884246273,0.5937998179432529,-115.06328320497431,-7.339048500929977,56.91332193828043,Accel,2025-05-11 12:14:57.917747,A002
102,0.05464999434861495,1.253740822577086,0.4160816669583127,108.86500141991536,46.57052299324229,103.66929626697498,Accel,2025-05-11 12:14:58.017747,A002
129,1.0111508306766819,2.070633845881571,-0.8722374333412883,-163.42807098898132,175.23921505880077,-85.0686280376159,Stop,2025-05-11 12:14:58.117747,A002
127,0.2546502532909969,2.9534379822276495,2.1368615884201168,-70.41803308128121,-71.62348834875947,-5.912175186698704,Landing,2025-05-11 12:14:58.217747,A002
138,1.3492230342843996,0.672023383988674,-2.281329720698634,-121.20393250284891,50.664009350680374,112.82954915551278,Stop,2025-05-11 12:14:58.317747,A002
91,2.0487040398408807,0.3983981685628111,1.6804436137397438,-2.7377548270130774,162.55074111058815,-111.3485292765235,Stop,2025-05-11 12:14:58.417747,A002
125,1.8967534419237229,1.2502379761363578,1.9724655943708616,-77.1628789501622,-113.3608570459757,169.8860457546014,Landing,2025-05-11 12:14:58.517747,A002
134,1.8473601416070284,-1.4574902051776635,0.48193347548521803,-57.84746537049109,10.716648310972886,60.09084704698901,Jump_Takeoff,2025-05-11 12:14:58.617747,A002
128,-0.42556339526998066,-2.894300957153356,-1.5841465372832917,-77.47488393598289,-139.7304193153239,47.35328750735775,Sprint_Mid,2025-05-11 12:14:58.717747,A002
99,-1.6646777416339742,-0.075532932658259,2.113972058912654,-108.86163069929086,169.58369955862742,-134.0631690065491,Start_Run,2025-05-11 12:14:58.817747,A002
98,-2.8497819825753368,-0.3105669206676209,0.6646881364676833,-65.31728467464374,98.06677996436702,169.73174529729857,Landing,2025-05-11 12:14:58.917747,A002
121,0.7868213772467914,-2.2605219829229295,-0.052135394923812584,55.86545292367228,28.486050031983694,-129.5998262277327,Sprint_Mid,2025-05-11 12:14:59.017747,A002
112,1.0283460289499295,1.8534557765386568,2.4484464151775454,112.90014552460207,170.6125963993901,-33.02935050055126,Start_Run,2025-05-11 12:14:59.117747,A002
111,-2.8308956859292986,-0.3006248640714393,0.9082293144793949,113.54711087609121,-83.71606220122669,4.892859492944581,Sprint_Mid,2025-05-11 12:14:59.217747,A002
179,-0.41595857110526957,-2.3119125457279788,1.2855807769310923,-101.6054573223536,-116.41556663114707,-51.00374570782205,Stop,2025-05-11 12:14:59.317747,A002
84,-0.742909257084289,1.459669553503165,-0.26226840868799606,-169.70034830427534,151.15562196308673,-24.92987689232541,Start_Run,2025-05-11 12:14:59.417747,A002
159,-2.6780870159418555,-0.4244647524249787,1.7292306664297872,77.50156727778369,129.88616034966128,-176.55023242326396,Sprint_Mid,2025-05-11 12:14:59.517747,A002
81,2.980952620867442,2.15410892622461,-2.9539752042612673,-161.7999445665397,39.628598447248066,45.4521892076273,Sprint_Mid,2025-05-11 12:14:59.617747,A002
135,0.7743430471309543,-1.6337127689055462,-0.18890263377809458,111.23474424162788,152.21698725541376,-94.7105571719847,Landing,2025-05-11 12:14:59.717747,A002
135,0.309183917593697,1.202864818140851,-0.5595456768521316,17.177654944524903,159.3279834814394,-120.08900234462301,Start_Run,2025-05-11 12:14:59.817747,A002
170,-2.087641633331806,1.7532954228286481,-2.6277284374690226,-150.61260605351822,-72.54211939654726,5.107745131564059,Sprint_Mid,2025-05-11 12:14:59.917747,A002
84,1.0485650022990836,-0.6265325118232572,-0.14028217109131003,-142.95177265578303,-177.18897593506262,-160.14559530997914,Landing,2025-05-11 12:15:00.017747,A002
141,-1.5751398299662556,-1.4269706895503074,-0.05308095413729719,-29.07470106095036,-75.15744183674488,110.70417466985361,Jump_Takeoff,2025-05-11 12:15:00.117747,A002
174,2.529245659180644,-2.285573995592885,-2.021160742632702,-59.92069874352683,149.45083163312745,99.1719874821402,Accel,2025-05-11 12:15:00.217747,A002
102,1.61347926054757,-0.8746759317943447,1.1656627024778352,158.8643821419397,45.24095877296631,-126.57235558225062,Stop,2025-05-11 12:15:00.317747,A002
177,2.5430066185401845,-0.6417672840307476,0.8001080237326241,141.80039062090714,31.675432179289828,41.3635237297575,Stop,2025-05-11 12:15:00.417747,A002
124,2.4192400074947367,-2.874102022282181,-0.15211105330917052,155.21691279982406,-37.857240084592405,-25.85675251362585,Sprint_Mid,2025-05-11 12:15:00.517747,A002
100,-2.2777172120092515,-2.2853539212673155,2.6091707655141745,-73.52211550226663,-92.94680914662501,-167.17576832852447,Start_Run,2025-05-11 12:15:00.617747,A002
99,-1.7342836844834797,-0.778623085050159,1.8524533741267177,-83.06628607044807,137.53958554035665,-160.21516512597609,Start_Run,2025-05-11 12:15:00.717747,A002
114,0.36448246724258926,0.9526660709262273,-0.7938628647818815,101.51794278398171,-120.03614996961382,-162.39174289974466,Accel,2025-05-11 12:15:00.817747,A002
126,-0.06359048841763837,-2.196762185323529,1.9184312455574855,-42.9613184484125,9.92598955900533,-169.44566083963704,Stop,2025-05-11 12:15:00.917747,A002
80,1.050328984400796,1.6006232708479917,1.2602135076132086,85.32670912482968,-142.33685380224156,69.64230279511477,Start_Run,2025-05-11 12:15:01.017747,A002
148,-2.4119074087392876,1.5429649827290461,2.3364367026093884,78.01556666585714,110.00644301331118,176.79173584378168,Start_Run,2025-05-11 12:15:01.117747,A002
80,-1.418553070791697,1.5657799065648526,0.1888049757444774,-155.636941238784,-47.40605797459483,138.56884459631766,Start_Run,2025-05-11 12:15:01.217747,A002
164,-1.0605192963359575,2.6290989122670547,-2.5403825498507393,166.044493401188,-91.54616670551677,-176.72609509112905,Start_Run,2025-05-11 12:15:01.317747,A002
123,-2.7022148359282125,-0.0493556169082674,-0.18818374886634093,-152.0116401964792,-85.7338086929709,163.19597776788817,Start_Run,2025-05-11 12:15:01.417747,A002
171,-2.110933618023158,-2.714714346713019,0.847289941410148,-156.8024548010308,84.17884299172414,14.07245220800911,Start_Run,2025-05-11 12:15:01.517747,A002
102,-2.0581296292160633,1.0928410373478101,1.5091295885475215,-114.79966217397369,-163.8023530968208,-150.86119164875333,Sprint_Mid,2025-05-11 12:15:01.617747,A002
98,1.3429720909376712,-1.879389502379947,1.4312992462206564,-7.43317588230002,-16.65296672605143,126.51661362869089,Stop,2025-05-11 12:15:01.717747,A002
112,-2.8025352182703642,-1.2229541123903858,2.2255239650993914,-173.4025793237285,16.29124065430932,82.01724090261979,Landing,2025-05-11 12:15:01.817747,A002
166,2.620281357788989,-1.5762343380290937,-1.8632612813101403,39.49613612707216,34.15572339630603,3.635400122930548,Sprint_Mid,2025-05-11 12:15:01.917747,A002
108,0.33142937943599104,2.5967883412378736,-0.9925338653228226,168.33570959529015,-51.56759548883005,-129.65237909358558,Accel,2025-05-11 12:15:02.017747,A002
142,-1.9262290971899938,0.9821708334742967,2.9445729332362776,116.44328320934403,88.46680915850499,-105.10320446414308,Sprint_Mid,2025-05-11 12:15:02.117747,A002
86,2.3357401324317335,-1.021033023450724,-2.6276936841874035,-8.648651282491386,-82.85846226556404,77.48254431946737,Sprint_Mid,2025-05-11 12:15:02.217747,A002
172,2.8694915633339058,1.045749033403423,2.5900859737257953,120.59820799373585,28.29545664411512,63.13965272840278,Stop,2025-05-11 12:15:02.317747,A002
93,0.04666371641738776,0.755196657692208,1.2030419740732814,-88.88961484028631,111.4485339293945,162.11683402821842,Jump_Takeoff,2025-05-11 12:15:02.417747,A002
83,-0.045793634488020984,0.31394021193299615,-1.788569276908855,105.96360383475763,-50.80381630648961,164.371519252636,Stop,2025-05-11 12:15:02.517747,A002
141,2.496003255575058,-2.490739531103136,-1.000901067023839,160.24954863690624,109.63198614399755,148.02609215067463,Jump_Takeoff,2025-05-11 12:15:02.617747,A002
100,1.857913992422711,1.9392596530838144,1.2522312032940182,-132.74560400656645,60.26350484189072,140.07116999767163,Stop,2025-05-11 12:15:02.717747,A002
172,0.34366537989006263,1.1064144123878314,-2.173978414433961,-91.86306535356341,-110.48032378475496,-100.8010250386048,Accel,2025-05-11 12:15:02.817747,A002
91,1.5071498187083145,-1.7839685621561718,1.005172909345017,53.903825552660635,144.43514490298048,119.0853802220667,Accel,2025-05-11 12:15:02.917747,A002
94,-0.4994813262447657,1.2981587142658482,2.404768201577216,-133.6458442766495,-84.49391678950029,150.9466375184059,Accel,2025-05-11 12:15:03.017747,A002
145,-2.660912253671626,1.0660426486082804,-1.0307894967742952,-11.600544605027494,65.42223733984835,148.2388369286914,Start_Run,2025-05-11 12:15:03.117747,A002
174,-0.2964172253784012,-0.6733010553217262,-1.5613215669357152,-45.92636957665144,-140.02330057491662,169.5979830113116,Start_Run,2025-05-11 12:15:03.217747,A002
127,-2.2331649432287226,-0.8831639444045654,0.28223486172393564,11.838829190713057,-167.21878726129236,162.3027723224801,Landing,2025-05-11 12:15:03.317747,A002
168,-1.1158874176658098,-0.04517626420658827,-1.7968884596141477,76.00438661577391,13.071072511530843,143.3044285823816,Accel,2025-05-11 12:15:03.417747,A002
97,0.7365671540411314,-2.3289611709503255,-1.1200330070921067,-29.60615821516481,-122.59436479676381,2.18660344801566,Jump_Takeoff,2025-05-11 12:15:03.517747,A002
142,-2.1746984550423107,2.3364685857222387,2.4816481432868676,-14.147842270623414,110.44141644692814,-49.25115131251019,Stop,2025-05-11 12:15:03.617747,A002
138,1.3451546799249297,1.8936954920821654,2.2314839325518188,170.14598690271083,94.76876646510226,39.0268518982127,Sprint_Mid,2025-05-11 12:15:03.717747,A002
102,-1.9101405806537035,1.1199592438997659,2.969699916731651,-11.750873537189136,80.52457251341076,-1.76671800246379,Stop,2025-05-11 12:15:03.817747,A002
158,1.386647764309001,-1.5740531308371717,-0.38512295334507574,-126.49432160289291,-164.90308497296328,-157.29517610491285,Stop,2025-05-11 12:15:03.917747,A002
109,2.375454832388945,-0.9506926088693697,-1.1441540070882141,81.63218066336492,-70.30931756893581,-160.93209398050436,Accel,2025-05-11 12:15:04.017747,A002
108,0.23946519441003744,1.261521503044296,-1.0852065400976365,-130.50239236918839,-173.65679901730297,-19.550560094662274,Start_Run,2025-05-11 12:15:04.117747,A002
148,-0.4046130043894114,-2.001407540025258,-1.0864457074086635,-24.41978813736506,77.00092895812071,-175.27603479781195,Stop,2025-05-11 12:15:04.217747,A002
105,1.2054562917281348,-0.4675881711755232,1.5140638380530458,86.91838273593692,-165.57819722619013,63.4488523422624,Stop,2025-05-11 12:15:04.317747,A002
147,-0.3620308057764565,2.9015899732689237,0.41443917354044224,-107.00308462721792,-74.58737216227762,69.68248414936917,Sprint_Mid,2025-05-11 12:15:04.417747,A002
115,1.1392920650100624,0.4065667337863612,-0.4220584668839882,114.52051683885276,105.99388998614893,83.4991398279941,Accel,2025-05-11 12:15:04.517747,A002
138,-1.0204198749451512,2.2629522496203176,-2.354527783716824,-166.32640045432973,-104.94496557259578,-77.00839984621116,Accel,2025-05-11 12:15:04.617747,A002
159,0.081464412764777,-1.9353231151875387,0.3929177000050199,-21.944426230996925,-134.1204999947557,-12.840245057507673,Landing,2025-05-11 12:15:04.717747,A002
137,-1.6475873113871986,-1.558063389048799,0.4482552172054519,21.83145305255499,96.74252208434928,92.81279004993576,Accel,2025-05-11 12:15:04.817747,A002
133,-0.3052166046390541,2.343842317683703,0.7354709413277924,176.47145656644858,114.97313445636911,-164.04846795420255,Accel,2025-05-11 12:15:04.917747,A002
114,1.9137802081648578,-0.8213800763426926,-1.8340741596965568,-48.56944409752674,-102.76048524859524,7.001185612442612,Start_Run,2025-05-11 12:15:05.017747,A002
179,-2.6764998972613796,0.4398824674291326,1.1315971240529716,-62.58610183702983,40.890306548115575,-161.22339689280147,Sprint_Mid,2025-05-11 12:15:05.117747,A002
164,1.2105286335509904,-0.7915817686962074,1.028004186618034,119.41960330077052,126.94407749140208,-118.01964763279766,Jump_Takeoff,2025-05-11 12:15:05.217747,A002
106,1.081064108040633,-0.8133825313755607,-2.1178199447091233,-54.14337633445682,-99.22379978513322,106.48044058981901,Start_Run,2025-05-11 12:15:05.317747,A002
179,1.4465147864293186,-1.0851629067948403,-2.3717690588254707,78.02869784762788,-72.10878070319838,-120.10941924778014,Accel,2025-05-11 12:15:05.417747,A002
92,-0.8783609875332026,2.9672633525436245,-0.3457369942187265,-112.46480936230522,99.7716846681165,153.53719789222748,Jump_Takeoff,2025-05-11 12:15:05.517747,A002
129,0.9582268928825513,-2.408909559188797,0.3639411210040908,-136.84108650335847,-103.81848215422266,-118.01213007992541,Start_Run,2025-05-11 12:15:05.617747,A002
147,1.337125078052125,1.9696982710094844,-1.336236618561144,66.17628988326115,130.4777316160787,-7.411854637229567,Stop,2025-05-11 12:15:05.717747,A002
111,1.5951959216328486,-1.1654470610658072,-0.5494877550078447,-71.42271613302076,-151.11925495162922,158.19610424262743,Start_Run,2025-05-11 12:15:05.817747,A002
117,-1.5887700414136119,0.3675229247670062,-2.245218045372325,161.99145847770694,129.53623735445797,-123.99645704080666,Start_Run,2025-05-11 12:15:05.917747,A002
158,-0.5137009838623401,0.7746788608825819,1.6933740028327406,66.61626325510304,61.752070459666385,-126.34480469692531,Accel,2025-05-11 12:15:06.017747,A002
162,-1.533807052243698,1.4386067265038287,2.7038627096676517,-130.65320063322977,3.970463511130305,-159.53689775463027,Jump_Takeoff,2025-05-11 12:15:06.117747,A002
145,2.1401893387654134,0.3118451716306785,-2.71933709885932,170.7380065900606,118.31396758653625,-132.62613226145635,Stop,2025-05-11 12:15:06.217747,A002
96,0.3203891717205174,-2.2032197100565742,-0.9435958358174563,3.6692132088981566,145.34371284702928,-150.5436022480619,Start_Run,2025-05-11 12:15:06.317747,A002
150,-2.1132951991300937,1.473407710412106,0.816819182568786,-112.48990273923809,-118.53645259930212,133.31793373368913,Stop,2025-05-11 12:15:06.417747,A002
174,0.9274590850448314,0.024426023140039277,1.3641211024557567,-7.472744985841018,-76.54323050799537,-49.1819864412613,Stop,2025-05-11 12:15:06.517747,A002
96,-1.0523807793244115,-2.3444033318706157,-0.49806838029897005,95.1434034613979,-37.80900016397382,54.06451999857623,Jump_Takeoff,2025-05-11 12:15:06.617747,A002
164,1.169560178640614,-2.0384004057564784,-1.5769939122084213,69.28037324695688,100.71397990048393,-93.94706046606979,Landing,2025-05-11 12:15:06.717747,A002
167,-1.157275830767635,0.5881101890198206,-1.9691029301923384,-142.4724484014801,64.39107207078487,100.47525832554123,Sprint_Mid,2025-05-11 12:15:06.817747,A002
155,0.2950592352673125,1.4658297940511718,-0.549128813069709,179.89013929363017,-72.73826631521911,172.16940667414212,Stop,2025-05-11 12:15:06.917747,A002
81,-0.6948650876761198,0.2640737481786588,0.6779151723821304,-11.453797429643856,111.64558860430532,96.3381670049634,Jump_Takeoff,2025-05-11 12:15:07.017747,A002
106,-2.2831114297615267,-2.818337392013243,-1.196616689328171,107.03680682409015,62.27363061851335,-22.96484487985569,Accel,2025-05-11 12:15:07.117747,A002
119,2.3337135341438406,1.6333582403140765,2.5592732486137644,-157.2731422831969,45.99254781417477,-127.93379827555893,Landing,2025-05-11 12:15:07.217747,A002
142,-2.397624485682834,-0.9819592627251819,-0.11053150837861025,61.45048578743612,-1.6373910810937105,148.59296350082593,Start_Run,2025-05-11 12:15:07.317747,A002
143,-2.7620075418527086,-2.3180641856031943,1.520973368883351,77.68357068466594,-124.74107934274615,-158.7928820163602,Stop,2025-05-11 12:15:07.417747,A002
179,0.8144329921604005,-2.1882021749229903,-0.15828407375510833,-69.90064951737135,155.27003242927958,-101.08807077981434,Stop,2025-05-11 12:15:07.517747,A002
80,0.9742297463774938,0.8929552590036844,-2.649622655645077,-101.5140605285021,166.1295184289097,12.37119438937654,Start_Run,2025-05-11 12:15:07.617747,A002
132,-2.937436635999153,-1.7718430225021122,1.6573503172321367,-80.72185885127239,-0.25797558130085463,-67.68049881269386,Landing,2025-05-11 12:15:07.717747,A002
80,2.7399605305452805,-1.656551210753314,-0.25350379570680426,-138.69505394607071,37.181635002211834,-44.8375967794035,Jump_Takeoff,2025-05-11 12:15:07.817747,A002
121,0.4147830162746473,-0.7525223583900882,0.9247049050680651,-121.11633095893663,-157.14370986670588,127.62183323455218,Sprint_Mid,2025-05-11 12:15:07.917747,A002
103,-2.696128041337642,2.298917918230991,2.047284873066319,-55.479572790471636,42.49169430520939,-3.7471114599838984,Stop,2025-05-11 12:15:08.017747,A002
147,-2.498234020920356,1.8271775983500032,-0.3353077828981528,95.43648606120479,-175.45684964790672,-169.65370909003585,Jump_Takeoff,2025-05-11 12:15:08.117747,A002
91,1.2531426792256486,2.7767190529684207,0.4275709706557165,-149.33981998419972,35.06360082737507,67.1691340876636,Start_Run,2025-05-11 12:15:08.217747,A002
174,2.4568264155910944,-0.39444143887881644,-2.433682797478987,81.56156694822897,-58.705677847051504,106.17462627722307,Accel,2025-05-11 12:15:08.317747,A002
154,-2.992539366803388,1.5936797041329918,1.4387699559471523,-176.49685434401172,-46.94245285904475,38.429168517191044,Jump_Takeoff,2025-05-11 12:15:08.417747,A002
161,1.6679167123230432,-0.4472500041933962,-2.0768221832769775,171.50962473857828,-92.86560260062322,78.36923179487962,Stop,2025-05-11 12:15:08.517747,A002
154,2.402469828531709,0.03252555915836686,-1.099169201006055,142.74296464015134,-168.46658396289786,-169.91321354178825,Sprint_Mid,2025-05-11 12:15:08.617747,A002
147,0.9822795151211636,-2.6253942958319354,2.2267927264930085,-113.34928138486721,-98.86952688468344,58.08594242990267,Stop,2025-05-11 12:15:08.717747,A002
154,-1.0254134461553874,1.1636347678969043,2.1596324804009113,-43.03287966445441,167.34957075668524,-84.60259516060525,Stop,2025-05-11 12:15:08.817747,A002
164,0.41013027591972406,-2.348107325202417,-0.7633377252642797,-92.63001655593554,6.287599315341481,123.61000639391625,Accel,2025-05-11 12:15:08.917747,A002
88,-0.3999478177900615,2.432105413962222,0.45711247504363417,23.828791463066466,-85.71243892485982,38.780189221365475,Stop,2025-05-11 12:15:09.017747,A002
160,-0.19091412141093045,1.2164662327183287,2.9679737932335266,57.261546178542545,105.86128736618468,-170.05821938558276,Jump_Takeoff,2025-05-11 12:15:09.117747,A002
108,-1.8906156286608038,-1.1655751559122578,1.6437647989392614,-16.65037658248147,137.6170259650205,-126.75199091560964,Stop,2025-05-11 12:15:09.217747,A002
92,-1.4259110995993458,-1.780164173982362,0.1557425956082441,-156.5858522337468,-36.240900146212624,59.84456544208348,Start_Run,2025-05-11 12:15:09.317747,A002
107,-2.2180553186392737,1.0870625764231656,-0.7639434270249725,83.9932780557262,-34.03026976068767,45.9384196795429,Jump_Takeoff,2025-05-11 12:15:09.417747,A002
96,-0.5710068249009894,2.8893266263382253,-2.0517460813417587,61.72229489595762,-94.61359384298495,0.05724226171594182,Start_Run,2025-05-11 12:15:09.517747,A002
126,2.4046920011305524,2.4391837927169364,1.9315042835325702,-44.89269286567679,78.22769460751238,-37.696154014940475,Landing,2025-05-11 12:15:09.617747,A002
107,-0.5887829061045067,1.4555591078533805,2.087626546551771,-14.362812296545542,34.0116627810383,124.16042441746453,Accel,2025-05-11 12:15:09.717747,A002
98,-1.6268503450590177,-1.8541866134445035,0.11397273859298984,62.104092947066135,-164.04038971117868,-100.41628858300199,Stop,2025-05-11 12:15:09.817747,A002
174,-0.5729015470592236,2.6028676500598076,-1.8297630916017034,123.76488400794028,114.57632453745254,175.0786756384823,Landing,2025-05-11 12:15:09.917747,A002
93,-1.1080478677191243,2.4172680063467187,-1.5955256447863226,17.244344515359273,74.64418530878024,-82.12167170536115,Stop,2025-05-11 12:15:10.017747,A002
132,-0.21969908480208167,-0.3740858116534662,2.1328051746966326,-161.9392163404721,137.50647401947265,126.74514161828051,Accel,2025-05-11 12:15:10.117747,A002
82,-2.4663885314671914,-0.8964319663431928,2.46829993996801,20.400367081321463,-84.42123701812714,164.54026673291156,Stop,2025-05-11 12:15:10.217747,A002
167,2.430597727605857,1.354618041687333,1.443126221752717,95.37815462458178,2.364952340595323,113.24834136096075,Sprint_Mid,2025-05-11 12:15:10.317747,A002
118,1.4977269333818573,1.5452207207833757,0.9135391066412648,2.5356732972154816,-126.010418593141,-61.30984078618137,Landing,2025-05-11 12:15:10.417747,A002
171,0.5614065404942545,-2.814114280332829,-1.3326336129555014,0.740752884834535,31.43418196849234,46.956430440264285,Landing,2025-05-11 12:15:10.517747,A002
92,-1.1111950431957798,-1.0794413455466914,1.2023107988597603,-139.05251301105923,118.46471263779267,93.96262446692901,Sprint_Mid,2025-05-11 12:15:10.617747,A002
131,-0.7146771102318237,-0.8720234894102452,-2.6374159370841737,-12.007511729504813,178.0665436769592,-72.3830195388659,Stop,2025-05-11 12:15:10.717747,A002
150,0.2867300095226142,-1.0486481968111578,-2.462357637645473,-102.29115572452355,101.4672742164878,-79.55273612928767,Landing,2025-05-11 12:15:10.817747,A002
164,-1.0122099572359615,0.5042577133661412,1.2207789857399947,-40.548658690951186,-0.6670234517943641,-16.22999086795386,Start_Run,2025-05-11 12:15:10.917747,A002
134,-1.973331999975422,2.5852385574871217,0.18412884637466265,152.2539954626286,-105.21717040735987,37.642559257525534,Landing,2025-05-11 12:15:11.017747,A002
108,1.6453331469360792,0.6354536592797784,-0.032907258250089555,148.67474631516313,-44.237856898195105,-100.80712623665467,Stop,2025-05-11 12:15:11.117747,A002
179,0.7441706230368825,-0.3654322705687476,-0.08033973786370607,165.439229147964,83.76684890284844,-140.18336946627227,Sprint_Mid,2025-05-11 12:15:11.217747,A002
87,-2.083605633277746,-0.817036238619735,-2.3974226602146724,125.49915246211083,-63.60476265048929,-21.846129171245025,Start_Run,2025-05-11 12:15:11.317747,A002
143,-1.2318600873637495,0.30489795270423237,0.7644906676217715,-6.79254810211259,117.78433439688456,119.83285504727621,Accel,2025-05-11 12:15:11.417747,A002
119,-2.82846474036171,-2.6039614012204053,-0.6975565829230121,89.90868910622191,148.7614421283642,-169.30501007516906,Jump_Takeoff,2025-05-11 12:15:11.517747,A002
119,0.04406119393329799,-2.1489010684845473,1.1497769435927934,-59.068338615393714,-86.16283255891645,164.34314864450823,Stop,2025-05-11 12:15:11.617747,A002
172,-1.937653819304578,-0.3978244979505856,0.7220268326627974,-170.6160215042644,-34.34694010348221,-124.21503613885656,Accel,2025-05-11 12:15:11.717747,A002
118,-1.8504303018934618,2.6602783139685062,-0.5913710280068103,10.223634024535187,-135.81384496404877,14.438678011844729,Jump_Takeoff,2025-05-11 12:15:11.817747,A002
127,0.435999020831356,-2.0181773465040744,1.661174117016671,129.8590940640844,140.1212167505617,-70.53314802071353,Start_Run,2025-05-11 12:15:11.917747,A002
160,1.5765409248694713,-2.2768499866420586,1.5765888667269676,-21.69769044112749,127.9978165567901,86.01510959501275,Sprint_Mid,2025-05-11 12:15:12.017747,A002
144,1.3299512969049445,0.708304850012234,-2.4506895854925235,-139.26275762771655,-140.96029760954573,80.76849653874086,Sprint_Mid,2025-05-11 12:15:12.117747,A002
140,-1.355783724737215,1.4475855390868393,2.5334982075022516,-169.64250583699695,-179.9966534487895,-87.75265346775082,Jump_Takeoff,2025-05-11 12:15:12.217747,A002
101,-0.21399075833768677,-0.6131064292664474,2.1714596898262766,-60.89335024584781,-86.62830437970186,87.59357771589765,Sprint_Mid,2025-05-11 12:15:12.317747,A002
144,-0.32190201370424365,1.0716115382860023,2.1138529793297414,12.873527826661189,-59.05600533781475,97.03567656548961,Stop,2025-05-11 12:15:12.417747,A002
107,1.9000724356555398,2.8023324193698604,-0.23471233984223172,116.94105977535293,71.89009234465144,168.25895555892953,Stop,2025-05-11 12:15:12.517747,A002
135,2.739296126848968,2.9009163251496126,-1.7875769942030442,-126.49047996165618,-52.93680064028007,-58.64873728281344,Start_Run,2025-05-11 12:15:12.617747,A002
172,2.556368236720518,1.7931027612038068,2.8906776196679367,110.35628086471377,-176.32649257731174,-76.37963749145575,Accel,2025-05-11 12:15:12.717747,A002
108,-2.02913702603692,1.5039015510160088,-1.531217627068227,-178.99402182466153,148.30566071203373,44.25734089190263,Landing,2025-05-11 12:15:12.817747,A002
161,2.56905563439741,0.00037395954124885833,2.3342162647992097,-16.53650772047564,-80.19899732812237,149.90865051615395,Landing,2025-05-11 12:15:12.917747,A002
88,-0.18524455263894346,1.529810130396215,2.5614623872714155,87.83780424454244,-68.627927830928,22.264694898912893,Start_Run,2025-05-11 12:15:13.017747,A002
142,-2.9764436580644076,-0.8146327131227338,-1.9883591622629142,92.64304104211845,-161.78009732741754,19.254583290358056,Accel,2025-05-11 12:15:13.117747,A002
133,-2.197978506811787,1.6309092726158445,-1.6954989944684598,-99.476923660222,-80.97235735034772,31.23603497808986,Jump_Takeoff,2025-05-11 12:15:13.217747,A002
165,0.5432126380921538,1.4295640844942463,-2.8117218718988823,-66.49023592835887,-83.7196508176518,161.8541983036335,Stop,2025-05-11 12:15:13.317747,A002
140,0.7553412932329651,-0.9717455040177612,1.2040340690769593,123.70968462448599,34.138935849235224,102.40612808161649,Sprint_Mid,2025-05-11 12:15:13.417747,A002
116,2.7156111704589714,2.500605016001309,-2.5109124297299017,118.75237997209052,-17.57751136559395,131.718992662704,Stop,2025-05-11 12:15:13.517747,A002
131,1.9328692774222382,-0.16250417412925433,-1.84511539337747,-144.09950397621526,87.6100501756527,139.05409843073272,Jump_Takeoff,2025-05-11 12:15:13.617747,A002
127,1.9100300138068222,1.6420186281902982,-1.5882134293421206,-125.39143833505885,-39.86515332656279,137.9766049966385,Accel,2025-05-11 12:15:13.717747,A002
135,1.4183387403002676,2.8067231516006954,-2.3107014535272663,29.060951811410064,69.09531108231317,140.43543270756123,Sprint_Mid,2025-05-11 12:15:13.817747,A002
81,-1.468463883787403,-1.3424077252114512,0.871607683483997,-160.20652477576274,-150.9087384340689,-112.06578186746384,Start_Run,2025-05-11 12:15:13.917747,A002
121,0.7716295563793967,1.382217955127734,-0.7778270666540452,-103.24067433479969,-166.3339100533514,-4.1271768101188115,Sprint_Mid,2025-05-11 12:15:14.017747,A002
148,-1.4865646855382866,-2.5738340519923133,-0.045346434800990654,-149.2322317325469,-85.75559960302532,-134.64797010509943,Stop,2025-05-11 12:15:14.117747,A002
152,-2.363132083071649,2.723435996563712,-1.328623719301587,-20.19686904267644,143.50025074832,63.83577166613077,Landing,2025-05-11 12:15:14.217747,A002
172,-0.2409268898265129,-0.7760215925206726,-1.4129026884882483,-156.06475091464608,6.958121958394486,-67.35300009889077,Accel,2025-05-11 12:15:14.317747,A002
82,1.3411341404949146,-1.0073579307732214,1.0147241014005655,-86.87691349938206,81.78254144717505,-174.2122276037201,Start_Run,2025-05-11 12:15:14.417747,A002
89,-1.5020994434501835,2.6492174762309553,2.7234147667755,137.57123312130994,22.920496233587528,52.898201669029845,Start_Run,2025-05-11 12:15:14.517747,A002
129,1.5727258522464513,0.36063089803280723,2.404076322120104,-168.82882828381963,-82.29935384412471,83.2505966772128,Start_Run,2025-05-11 12:15:14.617747,A002
118,-2.1662377755467253,-0.29124692399705676,-0.6907232346941092,101.78454288852998,-122.17895047108665,171.39426448013586,Accel,2025-05-11 12:15:14.717747,A002
113,2.6871077312047937,0.22932132816664996,-2.7996829042123133,-34.764977238280096,167.8722689590149,82.93427756791687,Accel,2025-05-11 12:15:14.817747,A002
119,-1.8809964995711765,-1.586913290660023,1.7578934143490264,-146.4115757913887,-22.50942380249728,-171.6971806809983,Accel,2025-05-11 12:15:14.917747,A002
113,-1.8597731128790354,1.6360124091850192,-0.06603071592742449,-68.4096687479343,-121.79615529033146,40.018810604987095,Stop,2025-05-11 12:15:15.017747,A002
161,-1.2148226796270665,-2.4953899732103637,-2.9695973130164264,-32.93175752500946,46.73159485420237,-60.41547003480723,Start_Run,2025-05-11 12:15:15.117747,A002
119,1.2996376533903007,-0.8990308081918039,1.4058579996516283,158.57558530892993,-146.48544052451385,-69.80257434325793,Accel,2025-05-11 12:15:15.217747,A002
158,2.230253465383803,0.08204875330011419,0.5286217913311826,-46.337127683956425,61.140682639408254,-24.558575093628917,Sprint_Mid,2025-05-11 12:15:15.317747,A002
139,-2.3174296697347403,-0.13819265342433296,-0.8626386750637467,-3.2261508582758722,151.87191678540938,-7.0087164629730125,Jump_Takeoff,2025-05-11 12:15:15.417747,A002
168,-2.301958660535363,2.691498837798007,-1.7186219492527433,113.73299676791146,-91.18605338098972,-24.9191662115461,Jump_Takeoff,2025-05-11 12:15:15.517747,A002
144,2.9992286296448025,0.8650685410162637,1.1655895803756806,-3.076508315501286,-52.38376171828925,112.6630741129942,Jump_Takeoff,2025-05-11 12:15:15.617747,A002
87,-2.4805716278542524,-1.1528202537989363,2.4018728465438013,26.83202419972514,87.37323773496536,26.59891225532124,Accel,2025-05-11 12:15:15.717747,A002
92,-0.87757048332058,1.4369015137279657,-0.03458444155432305,-169.68746472830762,42.065946459332,-31.882954526401562,Sprint_Mid,2025-05-11 12:15:15.817747,A002
135,0.11867091802786156,-0.6259710471790223,-1.2213209322600747,97.65259917043505,143.81995811718633,94.55511216423969,Jump_Takeoff,2025-05-11 12:15:15.917747,A002
98,-2.7970701496848047,-0.3149958142952931,1.0749324164377807,-145.7409959711226,-32.18253582639153,159.1727771038303,Stop,2025-05-11 12:15:16.017747,A002
107,2.5454636060627447,-1.8053862576109596,0.8387197725994779,51.97645671044171,-122.27256551240174,-94.13012184571427,Landing,2025-05-11 12:15:16.117747,A002
149,-2.222097597053228,2.3759937100854804,1.1474424668196619,-86.76141361213223,144.60089242762564,-25.453829570035225,Stop,2025-05-11 12:15:16.217747,A002
167,-2.703130853675164,2.28921178807009,-0.9405018551664455,128.2814369408547,72.59629274814378,95.82213214698515,Accel,2025-05-11 12:15:16.317747,A002
158,-1.9782264944877976,-2.8679033059972885,-1.728680763300255,13.093928540685255,-6.638051600155421,0.5389543929829301,Jump_Takeoff,2025-05-11 12:15:16.417747,A002
166,-2.516909941204137,0.9611296670554559,-1.3749650109722693,-92.26128759070316,-87.63743883484337,149.78701752941413,Start_Run,2025-05-11 12:15:16.517747,A002
141,1.0168253928696345,-1.314313045201796,0.1377267311107091,-53.96395024397168,-64.38994545729574,-91.09121473072359,Sprint_Mid,2025-05-11 12:15:16.617747,A002
83,0.9126651433123691,2.162102008851339,-2.1583910301874285,-25.22169079735724,-144.99920954648707,-39.745710562093876,Start_Run,2025-05-11 12:15:16.717747,A002
126,2.5360639181901803,1.8623087637038047,1.1649322387533498,131.4686927339801,109.02543226910228,53.00557955510121,Start_Run,2025-05-11 12:15:16.817747,A002
119,1.8171982343852768,-0.6806527576110444,-1.772078822122038,-156.60350627804337,-151.38297059303252,93.61699414595188,Landing,2025-05-11 12:15:16.917747,A002
171,2.1872475173852344,-1.132002770202438,-1.0393029241846892,-153.37847164690754,138.92386460246985,-117.17625513928695,Accel,2025-05-11 12:15:17.017747,A002
160,-0.7318153987541378,-2.5354664200029595,-2.927411869809287,-76.26349819377185,-176.6799815085983,-97.17385640266677,Jump_Takeoff,2025-05-11 12:15:17.117747,A002
90,-1.5270953571163521,-2.018689732062321,1.4225061489539188,149.87335481322714,-141.28334569629993,-110.16712364183803,Start_Run,2025-05-11 12:15:17.217747,A002
111,1.0628696239749793,-1.7718499522692577,0.710041903679647,-133.34913719640562,-179.25096989653713,155.35144850744842,Stop,2025-05-11 12:15:17.317747,A002
154,-0.2987164142605372,1.4965170324071426,0.8764215556287493,-9.740929124982642,-162.06757207084632,87.02992978461907,Sprint_Mid,2025-05-11 12:15:17.417747,A002
123,-1.6530318695854744,2.689611898729023,1.6410166172829719,166.41672540369711,-87.76190442038758,120.88559792803943,Jump_Takeoff,2025-05-11 12:15:17.517747,A002
159,-2.1779338278694294,-1.7886236632026609,-0.5510120105906706,-32.827891538766494,-65.6790697369135,-126.52374545640686,Landing,2025-05-11 12:15:17.617747,A002
142,-1.3683926327421494,1.2301625733151687,2.8836672075234517,-165.83061934844682,24.115619678166183,84.58313692203694,Start_Run,2025-05-11 12:15:17.717747,A002
82,-2.2936908055042355,2.4966650632178258,0.7803132128977706,123.54610559664638,143.3770738681839,-18.74087593834102,Stop,2025-05-11 12:15:17.817747,A002
149,2.817970552516595,0.9362752169328301,0.0928114140960501,-81.81927481448761,56.915598530701175,-48.89956936222342,Accel,2025-05-11 12:15:17.917747,A002
159,-0.3250693075699247,-0.9589742976690627,-0.1940512548717539,-25.498070006737663,52.01208935275804,157.3882375953076,Start_Run,2025-05-11 12:15:18.017747,A002
155,-0.3707443133327306,1.327325501418387,0.9308188634990167,-120.54956469009961,176.81139854752934,-13.102443975280806,Sprint_Mid,2025-05-11 12:15:18.117747,A002
169,2.5176809565193805,0.17543001946266035,1.2304617715758743,124.6485770143239,-95.2220175391734,-118.99202932996937,Jump_Takeoff,2025-05-11 12:15:18.217747,A002
146,2.3827997954763918,-1.7977974315411076,-1.1534757356136367,-77.10950661157761,-70.34832449193783,60.502005658338646,Accel,2025-05-11 12:15:18.317747,A002
162,-2.351102411920424,0.9360874775490382,2.5437294589495796,-122.00043413310007,34.942327539439475,-56.928466102790125,Start_Run,2025-05-11 12:15:18.417747,A002
154,-0.9135908654183078,2.829434902405618,-0.44530874361492057,-96.77704637230467,-116.02770667576814,178.26527729819725,Stop,2025-05-11 12:15:18.517747,A002
118,-0.6977079029980398,0.236247352944166,-0.7193640077051762,-50.43314610227762,-12.979244980075293,-80.64610787837131,Sprint_Mid,2025-05-11 12:15:18.617747,A002
110,0.00101537510481009,-2.729049957867022,-2.537865080557994,103.94981244045766,116.45149535575678,64.18430948778561,Jump_Takeoff,2025-05-11 12:15:18.717747,A002
129,1.9725484424600364,0.5751963211715792,2.5754934914588157,-19.699517938591924,173.98101692706263,-73.33126375705774,Stop,2025-05-11 12:15:18.817747,A002
82,0.828289206882066,-0.7310761922978379,0.7581932518575467,-70.20161341103312,42.450572461676785,-80.73134618938691,Accel,2025-05-11 12:15:18.917747,A002
137,2.4728154115391003,2.299231211240773,2.824788895636032,77.9497834397057,65.77962398470905,21.241105226939055,Sprint_Mid,2025-05-11 12:15:19.017747,A002
97,2.8899938995794336,-0.04209265308962706,2.6309709499846257,17.76428418061903,37.96734968002394,76.28841212542994,Landing,2025-05-11 12:15:19.117747,A002
127,1.2934178128384328,-2.338533079916601,-1.3857987073445346,165.06669894531348,-84.18601910529671,-73.2521806591874,Start_Run,2025-05-11 12:15:19.217747,A002
94,-2.6873320283409807,-2.387309466305779,1.0475654144135218,-154.462445349005,34.32880073303059,-100.79546448550124,Start_Run,2025-05-11 12:15:19.317747,A002
154,1.8126986829774,1.7045682034790879,-2.8704605331439477,-41.9345659762902,-155.2425832903868,105.1580805893849,Stop,2025-05-11 12:15:19.417747,A002
125,1.7544719831044118,1.1944630996765477,-1.4346461688147838,82.50001301181044,77.95747796926327,-14.635726898852226,Sprint_Mid,2025-05-11 12:15:19.517747,A002
115,-2.6800152609684664,1.289222464064311,0.2597601622264514,118.42524619584242,-82.159019571169,145.1955978969316,Start_Run,2025-05-11 12:15:19.617747,A002
113,0.6504193657323016,1.517996852601728,1.4077251618669386,-172.8724571574634,67.46951988678714,-17.80054268438633,Stop,2025-05-11 12:15:19.717747,A002
98,1.2765180123595892,2.912310841607434,0.24780789753793098,-82.30715459097969,66.12210782622245,172.57529507992365,Accel,2025-05-11 12:15:19.817747,A002
110,-2.1727306846083145,2.751466089869184,-0.2289462460481544,23.836408019061565,90.38633019711017,-155.3722254072615,Stop,2025-05-11 12:15:19.917747,A002
126,1.7821544600544446,1.6465714914590466,-2.8681037595935495,9.546786507749118,-160.46338653632273,18.314128385024844,Sprint_Mid,2025-05-11 12:15:20.017747,A002
162,-2.7874861603148178,1.4755016279913375,0.8564762078016774,-90.17213126898517,2.634660244673597,-133.36065440622158,Start_Run,2025-05-11 12:15:20.117747,A002
120,-1.0080506194577483,2.384919120045504,-0.28277049248920605,-33.92859701648845,-165.64549597275038,-48.84314215845541,Jump_Takeoff,2025-05-11 12:15:20.217747,A002
85,2.771831218644425,-1.2248930087277352,-2.0126227402810777,1.1046468523791475,-1.919418398156381,-117.01925504712437,Landing,2025-05-11 12:15:20.317747,A002
110,1.5261287552912917,1.2828518980606738,2.242136180340501,161.75800027636535,-168.3193774407392,171.10842476398284,Sprint_Mid,2025-05-11 12:15:20.417747,A002
126,-0.7023155478114225,2.022415455342423,1.4193478939856972,105.52117560828901,-100.55122817794008,53.482932696839526,Jump_Takeoff,2025-05-11 12:15:20.517747,A002
170,0.7753138325316815,2.9679253377486603,2.9764017311687807,128.74004471720065,-157.02084287059913,163.17950068034276,Accel,2025-05-11 12:15:20.617747,A002
102,0.7583267748752283,1.3138376358386656,-2.143915311112875,-129.57551802122674,77.8097439771505,-24.558302100421457,Start_Run,2025-05-11 12:15:20.717747,A002
94,2.1457049986096717,-2.772297082434711,-2.094731719052373,-134.95818252618523,-34.89280462791791,178.9152843207102,Sprint_Mid,2025-05-11 12:15:20.817747,A002
167,-2.127104102404439,2.490334378656927,2.2923031017957944,-168.3934668012404,90.6141456645534,55.96765253151466,Jump_Takeoff,2025-05-11 12:15:20.917747,A002
82,-0.03298527122446693,2.948275310689773,-2.736917887734221,-95.62622889462993,-37.243444689498574,-18.079941036346867,Landing,2025-05-11 12:15:21.017747,A002
110,0.3600261844635533,-2.7293340268776367,-0.5528222194460288,-30.063451547134832,167.57673783760254,35.71095276759894,Jump_Takeoff,2025-05-11 12:15:21.117747,A002
175,0.4303146025502542,-0.9380485220235899,-0.4708238109178371,110.35677884064586,145.30718173575792,104.59932464035694,Accel,2025-05-11 12:15:21.217747,A002
126,1.451222910581735,2.9793404354084956,1.815159209179896,118.49450513585515,162.505985655657,-125.59176005439821,Jump_Takeoff,2025-05-11 12:15:21.317747,A002
134,0.805721487726287,2.1484675405595777,-1.429311103847474,69.5243563836147,-36.03289321424137,-30.911348469750607,Jump_Takeoff,2025-05-11 12:15:21.417747,A002
113,-1.443711759549657,1.412743510052528,0.30842684943540366,-67.32389430220461,-122.1887265396747,142.518181344317,Stop,2025-05-11 12:15:21.517747,A002
157,-2.914858200031497,-0.3691899532670537,1.37330224603312,171.88389660058596,102.032028565958,28.99775587213435,Landing,2025-05-11 12:15:21.617747,A002
84,-2.9662003297117048,2.9139961381470423,2.882769810658984,178.61428459084914,-8.428255588931506,166.97122906355986,Jump_Takeoff,2025-05-11 12:15:21.717747,A002
146,-2.8422333559896797,-1.6539168817694128,2.671777469624308,-175.04471039925602,16.557888752271026,-152.78342799791554,Stop,2025-05-11 12:15:21.817747,A002
156,-2.6188596149641494,-1.346444300136181,1.060603630143584,85.05459639995041,-92.58413219595589,1.3752355394548488,Stop,2025-05-11 12:15:21.917747,A002
84,-0.7205390346626679,-2.1973723958592646,-0.40877766232518464,36.226319555531234,-177.33652985074337,-54.515697594937606,Sprint_Mid,2025-05-11 12:15:22.017747,A002
109,2.7114717002680218,-0.5487076051460118,-2.0221664071240424,12.318875268067188,-77.12915000411506,-102.67941624667777,Stop,2025-05-11 12:15:22.117747,A002
84,-2.81674813110157,-2.4525456353176747,-2.537839821772611,-36.58993694397358,115.77181013489292,123.86027980336883,Accel,2025-05-11 12:15:22.217747,A002
157,2.5203090413009326,2.466300904282627,-1.988215412729026,-156.8909318675467,-74.47748283469845,29.439021519996686,Sprint_Mid,2025-05-11 12:15:22.317747,A002
88,1.1916918360667257,-0.9619419687259869,-0.720568868290643,164.92087040375492,-157.0302921247434,98.54342529760532,Stop,2025-05-11 12:15:22.417747,A002
116,-1.6726256293481014,-2.092558499757792,-2.132634878266817,-12.979011684856545,-91.26158852312287,4.088031295860333,Accel,2025-05-11 12:15:22.517747,A002
129,1.6642387752632928,0.48622994502746053,-1.280178882910436,84.28150838319084,32.09033371598048,-175.41817859162862,Start_Run,2025-05-11 12:15:22.617747,A002
134,-2.97144575958057,1.4951311142128976,-2.690906440493308,162.03553885361544,72.9862158205926,-64.73797537631113,Jump_Takeoff,2025-05-11 12:15:22.717747,A002
160,-0.30337934815172707,2.3708829538303666,1.7288640838074656,-134.45075652639193,39.71080135443452,178.5263905390832,Start_Run,2025-05-11 12:15:22.817747,A002
155,-2.830613682305591,-2.47936030764603,0.8973194964372002,-35.5805422822703,24.23146710297101,-96.81205585603367,Accel,2025-05-11 12:15:22.917747,A002
137,0.4234242547823279,1.2774347421890253,1.6654501622343014,-82.25403201609431,-127.15424660269335,-74.95392717945892,Jump_Takeoff,2025-05-11 12:15:23.017747,A002
89,2.2007026676300754,-1.4247858270244558,-1.9659843271911566,-173.51400685675333,-146.20872249845738,-126.9105822408197,Landing,2025-05-11 12:15:23.117747,A002
147,-0.4647998706901393,-1.2946448961747452,2.4246474327458145,-113.4846041683115,65.29160720900148,152.87209652966908,Start_Run,2025-05-11 12:15:23.217747,A002
161,-2.2150174285586854,-2.1776877734876514,1.6365386319364053,128.06247029102667,102.49719502719319,120.4473113981831,Sprint_Mid,2025-05-11 12:15:23.317747,A002
147,1.0187923666476921,2.629978671459112,-2.485253470427781,-62.10850078273569,-20.13669453806932,-16.133263907622023,Landing,2025-05-11 12:14:53.417747,A003
89,-0.8174306701095855,2.2392699581605777,-1.9762052576197344,-100.89111001388217,-54.221510998862286,153.68766791521807,Accel,2025-05-11 12:14:53.517747,A003
151,-2.0223813661857237,-1.6761243319262578,-1.5889785652523294,-24.932889042733706,154.13227952243113,7.8425160173589745,Start_Run,2025-05-11 12:14:53.617747,A003
122,-0.04154606464113009,-0.8580328352444608,1.8470108191635743,62.31411902913402,-165.28536810517207,-53.73327640218815,Accel,2025-05-11 12:14:53.717747,A003
166,-2.526580364492507,-2.8535141110666675,-1.4924450191972376,-147.02686770799127,-58.917370132523956,98.25607452951203,Jump_Takeoff,2025-05-11 12:14:53.817747,A003
130,0.7033475165483778,0.018301554881046567,2.11769732603733,75.12834965154042,140.23984122072233,-78.62265032290225,Accel,2025-05-11 12:14:53.917747,A003
124,-0.5678903182468709,-2.4114338025541113,2.8529429899863343,-130.1375599829427,-57.28113919109357,-65.05188468236743,Stop,2025-05-11 12:14:54.017747,A003
168,-2.08643921932874,-2.730849982887685,-1.2455730386369193,131.9964926504063,-57.800805934541586,-135.4709404557435,Landing,2025-05-11 12:14:54.117747,A003
131,2.979605472329463,-1.6060572628084346,-1.3225739677765833,169.86493954108386,-115.64053648182463,4.037064285298982,Start_Run,2025-05-11 12:14:54.217747,A003
106,1.822644305185313,-0.40324245475883735,0.3641104913367852,148.5799499848647,25.04373032790042,-104.90200126744773,Start_Run,2025-05-11 12:14:54.317747,A003
169,0.17907482003681086,-2.0706138870624904,0.6751190121412156,179.72859307824928,54.91258737874719,-45.93198815480116,Jump_Takeoff,2025-05-11 12:14:54.417747,A003
91,-0.6875812888918826,-0.8544028458812405,-2.994006046398344,109.54564695976109,140.16154032772135,169.00687063649957,Jump_Takeoff,2025-05-11 12:14:54.517747,A003
145,0.29275387421930743,-1.3842928811477437,2.9957968557809904,32.311027631558005,65.21546603896064,65.66621830391435,Stop,2025-05-11 12:14:54.617747,A003
179,0.6866936538967137,-1.8718485733756307,2.661900430867105,-32.55447535028708,-170.82740391252963,-100.88210978465631,Landing,2025-05-11 12:14:54.717747,A003
114,-0.8306670247784305,1.4276880496999222,1.4474261828231612,38.54087730204853,-75.07187132495866,153.05573462059567,Start_Run,2025-05-11 12:14:54.817747,A003
106,1.742954137489983,-1.7141504270290102,-0.9357552683116328,134.84862589944328,-161.96146922161137,4.433512052398356,Stop,2025-05-11 12:14:54.917747,A003
88,1.5073811334484928,-1.3086373764040056,-1.6855990688424032,153.40782195836414,25.815474705047336,-142.31175541788437,Landing,2025-05-11 12:14:55.017747,A003
90,2.9929563570854896,-1.8263460224868455,0.6628530681220726,-28.75389156157749,138.8156741459407,91.860693226318,Stop,2025-05-11 12:14:55.117747,A003
89,-2.2038683290449246,1.4277514314559934,2.130364378303325,54.53235607868399,-164.2587496459928,-21.364672706121127,Stop,2025-05-11 12:14:55.217747,A003
133,2.8710788076438742,2.7108503284154546,-0.6257810733604874,41.73518600103333,140.6934530501706,119.17664905543074,Sprint_Mid,2025-05-11 12:14:55.317747,A003
127,-1.0307629885714658,2.351819476653633,-0.790438570619517,80.77057436275862,-150.2108985996463,32.79556773791734,Accel,2025-05-11 12:14:55.417747,A003
148,-1.77455426851103,1.3186687609348198,-1.2653924768494174,66.0501339960947,59.68996576587813,-81.92498294680507,Landing,2025-05-11 12:14:55.517747,A003
111,-2.5522856665877507,-0.9114658064899013,-1.6448269102669781,78.80753351707591,-3.5673511628298797,90.38537238528374,Landing,2025-05-11 12:14:55.617747,A003
168,2.3259499707736566,-1.002357837466852,-1.849202655260447,77.59997848623425,-65.13488824727314,-59.98801029256934,Start_Run,2025-05-11 12:14:55.717747,A003
155,-1.4900831063501647,2.380560286233753,0.36853006799007204,13.61941602206906,-84.68919537616455,120.63396244677324,Sprint_Mid,2025-05-11 12:14:55.817747,A003
116,1.3574555310442253,1.1603821576352082,-1.7731082984965225,-158.9374254782029,16.562430552091485,72.11001323321139,Sprint_Mid,2025-05-11 12:14:55.917747,A003
100,-0.8483336863129756,2.3781873724865807,-0.7084052647848811,68.18821503498461,35.37105498613872,-160.9276344110651,Accel,2025-05-11 12:14:56.017747,A003
108,0.41665211412746084,2.680831806547973,-1.2050095016151199,-70.0591783062224,-6.7753227196107275,150.67524063570795,Accel,2025-05-11 12:14:56.117747,A003
84,1.7819557438744322,1.790376894017946,1.6524870897985409,8.940064968495648,-77.5559843712534,111.39985579630843,Accel,2025-05-11 12:14:56.217747,A003
174,0.6180496345352946,-0.2971775300526156,-1.8498585518802637,151.82844405654794,23.56172468441423,82.48837820899877,Stop,2025-05-11 12:14:56.317747,A003
88,2.988288130365442,-0.2621391933680641,-0.4501657602054392,-50.34964820759774,-49.81375463750544,-80.72272414179477,Accel,2025-05-11 12:14:56.417747,A003
177,-0.5668486712523384,-1.6366758354005368,-1.5342582327770127,141.30413560027057,11.073303786896957,-5.951136843593588,Sprint_Mid,2025-05-11 12:14:56.517747,A003
98,0.4356923528707668,2.4022663732855865,-0.5513961091547657,110.47249563222306,-25.09717455044745,72.33873804639097,Sprint_Mid,2025-05-11 12:14:56.617747,A003
126,-0.6434451926718445,2.9442554373714485,0.6740990520214503,-47.73917461572748,-87.18498824874557,-165.6841067173381,Start_Run,2025-05-11 12:14:56.717747,A003
89,2.216754617042426,-0.1758526941573253,2.8375542624533976,-152.78936673403896,-178.78954380374282,-42.95942503058913,Start_Run,2025-05-11 12:14:56.817747,A003
131,2.309368623608357,0.5408145402273119,-1.556131118913741,24.57786754801205,-178.55939666350727,-67.53694510126108,Landing,2025-05-11 12:14:56.917747,A003
149,1.0433912271643209,0.9853078336732941,0.5860927681668451,-106.94668114728424,-25.829747906434847,70.52207452681634,Jump_Takeoff,2025-05-11 12:14:57.017747,A003
145,-2.888517995669405,2.7213408403205896,2.068896315432861,-86.20379492049437,41.92521665986661,152.3661781421476,Stop,2025-05-11 12:14:57.117747,A003
161,-2.822683254350289,-0.9303903843370831,1.9403023050243533,46.18403805071571,173.40747641711528,160.02537238375533,Start_Run,2025-05-11 12:14:57.217747,A003
148,-0.5451274687557763,1.3104376661901593,-1.7776652284169072,52.7286673553578,67.35184995733349,-88.12723535438474,Landing,2025-05-11 12:14:57.317747,A003
109,-2.2232214204280822,0.4652095496630797,-1.1618981508888337,60.057123772014364,14.393178761191308,-38.6678156728826,Sprint_Mid,2025-05-11 12:14:57.417747,A003
136,-0.6495894222892735,-0.2143985854433197,-2.5426896393297107,19.13878068170041,-61.668940601785096,-136.2880359607455,Accel,2025-05-11 12:14:57.517747,A003
97,-0.25525175019872304,2.9372505427204922,1.498011012631741,-24.998592967202,-15.373296016372649,-0.13247721009278735,Stop,2025-05-11 12:14:57.617747,A003
113,-1.75395210984536,0.23578958300556785,-1.3322510572140904,-2.3121220780144256,-22.812724478102325,-83.14162017102517,Sprint_Mid,2025-05-11 12:14:57.717747,A003
163,2.78662039905001,-1.9649703180906424,-1.549921105756964,-13.075289728233173,107.06714137993305,83.36717194620013,Accel,2025-05-11 12:14:57.817747,A003
104,-0.015531723051442903,-0.37785554340796246,-0.6426462250129252,-0.11138296099667855,10.26546161751375,69.08483307010351,Start_Run,2025-05-11 12:14:57.917747,A003
132,-1.4936920533644078,-2.0211591386702428,-0.6086196732358413,-150.47055905198397,9.635461592728404,122.25785732459076,Stop,2025-05-11 12:14:58.017747,A003
151,1.1781676014988358,2.3919383025266736,1.2548219493565531,169.55717346857307,48.86524017189686,166.8780497386997,Start_Run,2025-05-11 12:14:58.117747,A003
176,-1.0274270451451388,-2.4502094874177045,0.5138472758305008,30.917596447005025,-2.2299021755486024,-68.03274700228184,Start_Run,2025-05-11 12:14:58.217747,A003
141,0.8927917474733316,-1.1089278269046663,1.2886161509955567,171.0412225364613,142.9067238158221,-75.02926553560971,Jump_Takeoff,2025-05-11 12:14:58.317747,A003
161,-0.3872406912651112,-2.9762289943745985,-0.047504554674648425,-87.90487085054353,-159.78583655117356,147.96766755532616,Sprint_Mid,2025-05-11 12:14:58.417747,A003
118,2.5616437387206528,-2.8534121441538716,2.931018419569238,75.60818334006646,7.341201357466446,-39.770060985880804,Jump_Takeoff,2025-05-11 12:14:58.517747,A003
126,1.11407028099707,2.430083675206652,0.6458279681047916,-16.83655154999991,26.01696684303988,-107.25031341352658,Start_Run,2025-05-11 12:14:58.617747,A003
96,-1.8787157276966686,0.34348567246954165,0.8856219681629338,143.4899449467917,-17.93166264805879,99.1199615721165,Jump_Takeoff,2025-05-11 12:14:58.717747,A003
112,0.06558345956488587,-0.016474104309171178,-2.6375887872424384,38.46949329706109,110.9975036117632,89.64289952945217,Sprint_Mid,2025-05-11 12:14:58.817747,A003
114,0.735646331114733,-1.871165275162064,-1.6860137456726263,-155.76880018540274,88.92021100994293,2.51746933881023,Start_Run,2025-05-11 12:14:58.917747,A003
109,-1.5140994091523716,1.6282811323213666,0.7613740788643022,-173.480602576336,39.01269265064491,-3.0678356093592924,Jump_Takeoff,2025-05-11 12:14:59.017747,A003
148,-2.5542087705843945,1.1757491334004184,-0.3764649647843381,-90.24558965276535,63.52496440664507,-134.67695266620467,Sprint_Mid,2025-05-11 12:14:59.117747,A003
142,2.5819885991787306,-0.8470283585136986,1.8335054948617646,-0.5732846232462521,-37.231717927832165,157.83186675555714,Start_Run,2025-05-11 12:14:59.217747,A003
112,1.0824938476418176,-0.6725978103681927,0.9625465688661126,157.16499296520226,-112.390085939046,11.450883181920233,Sprint_Mid,2025-05-11 12:14:59.317747,A003
86,1.9598228866260339,-1.3733294283874222,0.2627411395792323,169.70265611621937,-65.26659634984166,-122.22846852586493,Stop,2025-05-11 12:14:59.417747,A003
86,-0.6730734676507426,-2.0425366032797188,2.3313082962202074,176.66060779936004,24.68958504839921,98.88363661444345,Landing,2025-05-11 12:14:59.517747,A003
171,-1.648027642027348,-1.697208432369409,0.5353979389802022,-23.019541013567874,161.60284909275663,-51.469004525551895,Accel,2025-05-11 12:14:59.617747,A003
129,0.4985564607842141,-2.6725434483019423,-2.4936867119433095,-106.86366425160352,-128.46505577435065,-61.42626372800065,Stop,2025-05-11 12:14:59.717747,A003
84,2.055162307725662,2.728522073675742,1.2968103789214176,84.11186349452396,156.08243217698396,-104.73433729187431,Stop,2025-05-11 12:14:59.817747,A003
156,2.4719051766461666,1.6090429601030358,1.2186429065953455,-138.6170217657097,-149.510083828789,122.70012872907091,Accel,2025-05-11 12:14:59.917747,A003
89,1.2299078308654847,-2.5057095655295365,-0.8661094030098191,-23.75999402562823,-86.17345276501207,-117.85418270307945,Jump_Takeoff,2025-05-11 12:15:00.017747,A003
145,1.2640205636493889,-0.08633004903308983,2.6997834770221907,77.04460844937648,-142.865042124036,-121.84507442186299,Start_Run,2025-05-11 12:15:00.117747,A003
158,-1.9628368500676383,0.6228046080731335,0.17834968085200487,173.68878448320976,89.16183722885688,27.274278137843226,Sprint_Mid,2025-05-11 12:15:00.217747,A003
178,-2.069434374835743,-2.908700821854137,1.1414000004871392,-144.6078743145945,-138.4438896059367,88.08506151283098,Jump_Takeoff,2025-05-11 12:15:00.317747,A003
91,-2.2530110644415973,0.02121027934880182,-1.3702042706396642,38.267090008943484,4.949024605472658,-127.85324031884636,Start_Run,2025-05-11 12:15:00.417747,A003
150,-2.6266638277269436,-2.4741457270215594,-0.4079724671450764,-64.4885837913709,74.36189315627928,133.28699696892068,Start_Run,2025-05-11 12:15:00.517747,A003
103,-1.073680287720088,2.890900214125608,-2.4464479516550623,-86.62816725210594,-149.04777712498503,-81.49269861513449,Sprint_Mid,2025-05-11 12:15:00.617747,A003
156,-0.9707008969049666,-1.690507004930572,2.228712387713059,144.76819264092177,-57.97049861103845,-52.27148905870557,Sprint_Mid,2025-05-11 12:15:00.717747,A003
105,-2.662830379600458,2.521155598602408,-0.5702850851411978,32.77711974840773,138.74830197061448,-35.2227609814868,Landing,2025-05-11 12:15:00.817747,A003
116,2.7010100445785614,-1.3850781541734616,1.525211195312103,-94.0409970049584,85.54001822356776,107.07118966397735,Accel,2025-05-11 12:15:00.917747,A003
123,1.2952172614994097,1.8726272331845388,-0.8485267673585293,-119.6270006436983,-146.8927557656951,27.137413299579094,Landing,2025-05-11 12:15:01.017747,A003
114,1.9377019201332963,-0.38496216639268344,0.21972541712975158,-79.36996125174518,-121.29628775037712,-6.450783036381637,Sprint_Mid,2025-05-11 12:15:01.117747,A003
145,0.1315797168225612,2.7168275133836444,0.6233718008686333,38.07786118405457,-133.91108537001236,178.73599182365535,Sprint_Mid,2025-05-11 12:15:01.217747,A003
91,0.06878354596510494,2.029797319217044,2.9125221000072994,-114.7273371521371,68.88468287791338,-150.9632804377668,Sprint_Mid,2025-05-11 12:15:01.317747,A003
101,2.41786034170474,-2.017765091169486,-2.482090359083013,85.75880599452319,-81.64734059772645,44.590514982238574,Landing,2025-05-11 12:15:01.417747,A003
179,-0.8258005087713558,-1.1598163776780106,2.1477805919940307,37.58501941591342,-119.29099980901421,-28.256208653098184,Jump_Takeoff,2025-05-11 12:15:01.517747,A003
115,-2.8790317072926355,-1.5389624355684317,-2.4599523573243682,-20.85011381183429,140.38564378151455,-11.685505583927096,Stop,2025-05-11 12:15:01.617747,A003
174,-1.2267407330641944,1.5479764643119305,1.0122934384150089,82.15999538670604,161.36773678895514,-27.139730116787007,Start_Run,2025-05-11 12:15:01.717747,A003
116,2.692804978065813,0.4474694791834266,1.5559414114704113,-147.77434807384122,-2.6408787010096546,144.37385918424837,Sprint_Mid,2025-05-11 12:15:01.817747,A003
101,-2.0494371035629237,2.872003121839395,0.14139226570665864,-163.23573185492063,178.98324625789667,88.16805173772809,Stop,2025-05-11 12:15:01.917747,A003
124,-0.920161833780683,0.9796838211469092,-0.10746393285312017,85.88557390856175,166.0348444402295,-138.0431924225289,Stop,2025-05-11 12:15:02.017747,A003
159,1.5425765021299185,-1.637875046678928,0.9691156908659364,-38.84015911127136,-154.8887452846779,-107.22866175238129,Landing,2025-05-11 12:15:02.117747,A003
142,2.3975112987725744,1.450877455599091,2.833097809122247,35.66574372068658,-92.98305644712553,-62.044189228208566,Sprint_Mid,2025-05-11 12:15:02.217747,A003
166,2.7421806302589617,2.1830950978233297,-0.9572004438575537,-139.43410352801754,-0.33955385035039853,-170.34703278563845,Accel,2025-05-11 12:15:02.317747,A003
121,-1.6869919344738444,-2.3551715761879124,1.7126701851134367,-139.50073518700125,80.72216543046102,-41.16287168061024,Landing,2025-05-11 12:15:02.417747,A003
98,1.5342487609116748,1.272210832519706,-1.7009839459168237,38.30096007947043,1.1889375470056507,-158.1061277340721,Sprint_Mid,2025-05-11 12:15:02.517747,A003
144,1.5122815668351661,1.2562675818593352,-1.2643698376531318,-157.67104487299807,128.90810600097979,-67.06885029483507,Start_Run,2025-05-11 12:15:02.617747,A003
118,2.344758310141943,-1.1710203181105616,0.9089598675167521,86.51267435915372,103.9023897505578,178.1134694305187,Landing,2025-05-11 12:15:02.717747,A003
160,1.46448266463036,2.7949465466497934,-1.6247627330238539,-128.28694857403696,148.63742828017092,60.82310788462934,Start_Run,2025-05-11 12:15:02.817747,A003
100,1.2588365334239402,-2.549229350137089,-1.092222432507639,-138.30929628638995,161.9793384795144,-58.04851959922968,Stop,2025-05-11 12:15:02.917747,A003
95,0.4279106147167635,-2.354931521657179,0.3680666872852649,57.96847563295424,137.34621263290666,-154.76916872910846,Accel,2025-05-11 12:15:03.017747,A003
135,1.7957028460058986,-0.04004233922071876,-2.0085726587375943,-30.712424526204643,103.06581438301134,-31.37066257785378,Start_Run,2025-05-11 12:15:03.117747,A003
101,0.5975739735609444,2.7920906800578438,1.7594578920074033,-60.15499032797781,-9.936011217828849,-107.75739524363897,Jump_Takeoff,2025-05-11 12:15:03.217747,A003
108,-2.5976062287517463,0.0176036224994931,-0.0026270643904586777,74.4843246032595,88.11024949868573,82.00493592944287,Stop,2025-05-11 12:15:03.317747,A003
171,0.687874077187022,-2.7458840946728635,0.8884864488942212,-137.62689758094723,160.70501700795614,131.161925714029,Start_Run,2025-05-11 12:15:03.417747,A003
87,2.4346325747131576,-2.6792669161008096,-1.149664722590036,-76.26771049984984,45.491438837126054,-132.75901736017548,Start_Run,2025-05-11 12:15:03.517747,A003
136,1.9713084507902474,0.9123949181116666,-0.24951700924681353,155.86417517114825,119.06875969940012,-0.24654669075184188,Landing,2025-05-11 12:15:03.617747,A003
167,2.8715780034778993,-2.2997644727851947,-0.409756451950547,-157.58364881314,99.55149939748429,161.53513765816035,Jump_Takeoff,2025-05-11 12:15:03.717747,A003
121,1.1749710921729122,2.719296183037118,2.7783846765781215,20.06023288496101,38.38401065144956,-113.1403732196517,Sprint_Mid,2025-05-11 12:15:03.817747,A003
172,0.16975263076985403,0.6958750464626702,2.652739882545024,162.405731616256,119.21337617892681,-111.04413226639221,Sprint_Mid,2025-05-11 12:15:03.917747,A003
89,-0.07305089847273205,2.432765636211104,0.12518894307727146,171.87683928076729,174.18282180091768,35.490333406673756,Start_Run,2025-05-11 12:15:04.017747,A003
148,1.8281747102389954,-1.9569240130610832,-0.04272492273549755,67.69336807912637,54.71670739170776,36.40658757489675,Sprint_Mid,2025-05-11 12:15:04.117747,A003
153,-1.7008678065899694,-2.303618096095956,2.3572275139686107,50.272179752899376,-92.32324346810746,-40.758372813546515,Stop,2025-05-11 12:15:04.217747,A003
162,0.7981273172281109,-1.4407222413011587,-1.8585606971472062,-14.831166471014853,40.89530475698814,-90.51922547397345,Jump_Takeoff,2025-05-11 12:15:04.317747,A003
127,0.6813558288690835,2.674430531936716,1.048450364628529,101.84549169044158,-47.94836588803125,-81.98843062159222,Stop,2025-05-11 12:15:04.417747,A003
81,-0.6219393250137797,-0.21663587735743972,-1.749946392473933,38.75269797412986,93.22553355939385,-25.293166515621152,Landing,2025-05-11 12:15:04.517747,A003
110,-2.1024617825198293,-0.6937819455939227,-2.2137467451274055,133.43921194275214,-171.66734963025704,-66.3146221191039,Jump_Takeoff,2025-05-11 12:15:04.617747,A003
122,0.2670842676552829,-0.38168475019271675,-0.5070213267789669,139.73789952723934,-47.86877677622911,129.3000704374528,Start_Run,2025-05-11 12:15:04.717747,A003
82,-1.8376272828204643,-1.6624868298849569,1.2515598457320172,-165.43953787571974,-161.51001370822266,38.93145925793402,Sprint_Mid,2025-05-11 12:15:04.817747,A003
126,0.99157754593476,-0.7687169724684528,1.835669332284919,12.104851581582324,-142.032373196609,106.95575054424427,Jump_Takeoff,2025-05-11 12:15:04.917747,A003
106,2.419263037742807,0.17204065880259822,0.18090192172747965,144.45574740118883,49.0121310381235,13.20782827059827,Jump_Takeoff,2025-05-11 12:15:05.017747,A003
104,1.6980512396289607,1.0259668921698957,0.5882749348021408,-110.82857446924041,-100.54673260167395,-162.95457429123505,Accel,2025-05-11 12:15:05.117747,A003
86,-0.516542859383883,1.669706197070747,-1.3060656150599521,-114.44066555649624,29.742210526411156,41.405349012149685,Start_Run,2025-05-11 12:15:05.217747,A003
139,-2.985188982084024,2.505894480131153,-2.5221780173199955,143.23209549912008,-36.28264522089199,55.10012687822416,Stop,2025-05-11 12:15:05.317747,A003
160,-2.57978864801301,0.21311018676430216,2.941956567161194,85.69504980511425,-62.15560509635402,117.7937280312247,Landing,2025-05-11 12:15:05.417747,A003
142,-0.7678266637786124,-1.1557291739743583,1.6413922511709913,136.26430985205042,44.64719788106299,153.8653232624772,Landing,2025-05-11 12:15:05.517747,A003
155,-1.2888274422934776,1.7571899226148266,2.6264248193725326,100.48941244713598,38.00832373107414,-92.63831388055037,Sprint_Mid,2025-05-11 12:15:05.617747,A003
151,0.183630432196491,-2.2713283982271815,-2.9793450063335416,150.22729709842054,-70.24997131988914,-100.26066767652493,Jump_Takeoff,2025-05-11 12:15:05.717747,A003
179,2.12041633308527,0.793672604061145,-1.4731034754088104,130.18918440755112,3.7537906057989403,-42.77131093431112,Accel,2025-05-11 12:15:05.817747,A003
141,2.036363826719473,2.1945763793809654,0.13356242717409605,153.81443728570946,-156.69440421246696,-139.2387147895617,Accel,2025-05-11 12:15:05.917747,A003
108,-1.0219225576192505,0.19378090489917188,-2.481979862090385,-97.13713179751406,95.84339839333802,58.13121984639338,Jump_Takeoff,2025-05-11 12:15:06.017747,A003
156,2.9840672957009895,1.7212751869257774,-1.35800247538904,-84.83575761838937,-59.07662275787743,123.57341303318736,Start_Run,2025-05-11 12:15:06.117747,A003
158,-0.16334012611890092,-1.3305922640151493,-0.5762610000418236,110.30086816597691,94.15829359659688,85.97128145800912,Stop,2025-05-11 12:15:06.217747,A003
139,2.3625450496622786,-1.4632134542273083,-0.47693785154080626,120.45446590619417,97.56267789955876,113.00979836379042,Start_Run,2025-05-11 12:15:06.317747,A003
145,2.469294289831039,-1.0442907362733884,-2.0599671939148916,75.14363972335133,14.167589762482692,127.65087677141315,Stop,2025-05-11 12:15:06.417747,A003
174,-2.8577685426015083,0.12190033316439264,2.9294161791289888,113.48557781015609,143.09089853949297,43.61907465918219,Jump_Takeoff,2025-05-11 12:15:06.517747,A003
142,-1.7075357684271586,0.22578405962127013,1.999144826613879,-63.5229510132057,-89.11105289233936,-79.58328889043244,Landing,2025-05-11 12:15:06.617747,A003
139,-2.1826603550042103,-0.8594005106268421,2.333837305680567,90.94884672566445,-80.07081325140167,-47.551207284886175,Accel,2025-05-11 12:15:06.717747,A003
85,0.6483737118306672,0.004676945643608654,-0.7066843942626537,143.52219200290966,-92.17314668931722,-77.12319592083533,Landing,2025-05-11 12:15:06.817747,A003
111,-0.8632906186974454,-1.2555946292482643,-1.0313486333608854,-21.959201703597955,139.1807314337836,84.26055755887205,Sprint_Mid,2025-05-11 12:15:06.917747,A003
81,-0.8526688156458642,1.8080828637702737,-0.9072564688078746,92.92984614334358,-167.85716131522116,18.419256530514957,Start_Run,2025-05-11 12:15:07.017747,A003
88,-1.7715611019174191,2.4951464510747448,2.5390226144223993,-127.41466177499262,80.69722171427958,-152.91413720931132,Sprint_Mid,2025-05-11 12:15:07.117747,A003
129,-0.6893959263568981,-2.3233766490650813,2.680603712981335,10.87885721555773,-78.1459455301546,-53.922553152656576,Start_Run,2025-05-11 12:15:07.217747,A003
85,0.59625366040214,-1.6026105912046027,-1.4159047071623598,134.70131580335732,-138.8427315835672,36.53644883869566,Start_Run,2025-05-11 12:15:07.317747,A003
149,-1.4861571554481718,2.9004906915985673,-1.176674592175069,-63.459276844712974,176.289432403148,-131.78610246036425,Accel,2025-05-11 12:15:07.417747,A003
137,2.6148765508963585,0.07076996565251203,-2.98486942978308,-44.97878011928174,-139.83516274146226,-30.17244206386954,Accel,2025-05-11 12:15:07.517747,A003
143,-2.95904993539848,-0.9687321141991712,-0.2809558261876042,23.88817347145533,66.1770375688871,-157.75763607764276,Start_Run,2025-05-11 12:15:07.617747,A003
161,1.9300275862080962,0.3956024921522836,-1.1968227016971182,-73.75462415781224,-49.990493841939184,44.169567343191176,Start_Run,2025-05-11 12:15:07.717747,A003
153,-1.9267275667041444,0.8987977612724563,2.0817992502457994,-67.4788667507055,28.004923785776555,82.90989971317913,Stop,2025-05-11 12:15:07.817747,A003
83,-1.3664891094121812,2.172038833611529,-2.780341704946795,-22.987044030331845,-137.675854629638,-29.93736266626763,Sprint_Mid,2025-05-11 12:15:07.917747,A003
131,1.6149916927399204,-0.08461060806707987,1.559802190174346,-104.00671020162726,162.97133010129892,102.09868156796375,Stop,2025-05-11 12:15:08.017747,A003
173,-0.4412111986376708,2.5121050676597854,0.4584281606123506,74.296515565095,-29.86731917525853,-99.47060468470292,Jump_Takeoff,2025-05-11 12:15:08.117747,A003
107,-1.5313232120354283,1.3272406831984016,-0.8424625564804256,104.57325752811738,-130.7916307015871,-49.687938233177306,Jump_Takeoff,2025-05-11 12:15:08.217747,A003
97,-0.5639653603075447,1.8504137987853673,0.5707027849476232,17.249199723593705,153.59110831204026,12.96898595173829,Stop,2025-05-11 12:15:08.317747,A003
112,-2.747888452401842,-2.583498248459174,-2.9554781527160987,148.7679212821081,-32.98080239362778,-11.317904591971484,Landing,2025-05-11 12:15:08.417747,A003
82,0.6554778622546675,0.6570095783434864,-1.2207934238711253,120.20701461282692,-120.30120862578224,-160.86614681773875,Accel,2025-05-11 12:15:08.517747,A003
